Folder: XASDataLibrary/data (part 7)

File: se_na2so4_rt.xdi
# XDI/1.0 GSE/1.0
# Column.1: energy eV
# Column.2: time
# Column.3: i0
# Column.4: itrans
# Element.edge: K
# Element.symbol: Se
# Scan.edge_energy: 12658.0
# Mono.name: Si 111
# Mono.d_spacing: 3.13550
# Beamline.name: 13-BM-D
# Beamline.collimation: none
# Beamline.focusing: no
# Beamline.harmonic_rejection: Rh-coated mirror, detuned
# Facility.name: APS
# Facility.energy: 7.00 GeV
# Facility.xray_source: APS bending magnet
# Scan.start_time: 2008-04-10T21:58:50
# Detector.I0: 10cm  N2
# Detector.I1: 10cm  N2 (?)
# Sample.name: Na2SeO4
# Sample.prep: powder on tape, 6 layers
# ///
# room temperature
# measured at beamline 13-BM-D
#----
#   energy       time                i0           itrans
       12508.00       2.000000       121961.4       559275.4
       12523.00       2.000000       119369.4       548592.4
       12538.00       2.000000       119744.4       551587.4
       12553.00       2.000000       119458.4       551479.4
       12568.00       2.000000       119495.4       552761.4
       12583.00       2.000000       119274.4       553011.4
       12598.00       2.000000       119531.4       555338.4
       12613.00       2.000000       119556.4       556547.4
       12628.00       2.000000       119360.4       556406.4
       12643.00       2.000000       119106.4       555033.4
       12648.50       2.000000       119601.4       556274.4
       12649.25       2.000000       119840.4       557311.4
       12650.00       2.000000       119683.4       556276.4
       12650.75       2.000000       119786.4       556389.4
       12651.50       2.000000       119695.4       555505.4
       12652.25       2.000000       119671.4       555042.4
       12653.00       2.000000       119556.4       553748.4
       12653.75       2.000000       119336.4       552020.4
       12654.50       2.000000       120168.4       554932.4
       12655.25       2.000000       120364.4       555035.4
       12656.00       2.000000       120152.4       552467.4
       12656.75       2.000000       120086.4       550098.4
       12657.50       2.000000       120134.4       548118.4
       12658.25       2.000000       120010.4       544520.4
       12659.00       2.000000       119979.4       540336.4
       12659.75       2.000000       119863.4       533836.4
       12660.50       2.000000       119977.4       526326.4
       12661.25       2.000000       119991.4       511760.4
       12662.00       2.000000       119937.4       487186.4
       12662.75       2.000000       119819.4       448437.4
       12663.50       2.000000       119856.4       397297.4
       12664.25       2.000000       119875.4       328561.4
       12665.00       2.000000       119736.4       280648.4
       12665.75       2.000000       119753.4       289728.4
       12666.50       2.000000       119619.4       337714.4
       12667.25       2.000000       119653.4       395947.4
       12668.00       2.000000       120294.4       435053.4
       12668.75       2.000000       120153.4       450869.4
       12669.50       2.000000       120190.4       461307.4
       12670.25       2.000000       120088.4       466827.4
       12671.00       2.000000       120047.4       468654.4
       12671.75       2.000000       120021.4       467349.4
       12672.50       2.000000       119970.4       464762.4
       12673.25       2.000000       120040.4       463116.4
       12674.00       2.000000       120100.4       463502.4
       12674.75       2.000000       119999.4       465987.4
       12675.50       2.000000       120039.4       470294.4
       12676.25       2.000000       119888.4       472590.4
       12677.00       2.000000       119809.4       472847.4
       12677.75       2.000000       119915.4       471371.4
       12678.50       2.000000       119910.4       466542.4
       12679.25       2.000000       119798.4       459957.4
       12680.00       2.000000       119727.4       453842.4
       12680.75       2.000000       119794.4       451529.4
       12681.50       2.000000       120234.4       453660.4
       12682.25       2.000000       120386.4       456142.4
       12683.00       2.000000       120111.4       457773.4
       12683.75       2.000000       120279.4       461331.4
       12684.50       2.000000       120278.4       464012.4
       12685.25       2.000000       120263.4       466394.4
       12686.00       2.000000       120116.4       467735.4
       12686.75       2.000000       120130.4       469353.4
       12687.50       2.000000       120124.4       470831.4
       12688.86       2.000000       120009.4       473957.4
       12691.52       2.000000       120012.4       481550.4
       12694.28       2.000000       119867.4       487772.4
       12697.16       2.000000       119632.4       491207.4
       12700.14       2.000000       120018.4       497011.4
       12703.24       2.000000       119864.4       499618.4
       12706.44       2.000000       119795.4       498838.4
       12709.75       2.000000       119717.4       492884.4
       12713.18       2.000000       119867.4       489095.4
       12716.71       2.000000       119728.4       487093.4
       12720.35       2.000000       119765.4       486374.4
       12724.10       2.000000       119787.4       483741.4
       12727.96       2.000000       119802.4       482909.4
       12731.94       2.000000       119699.4       482452.4
       12736.02       2.000000       119450.4       479077.4
       12740.21       2.000000       119086.4       474644.4
       12744.51       2.000000       119509.4       474961.4
       12748.92       2.000000       119536.4       475919.4
       12753.44       2.000000       119325.4       476029.4
       12758.06       2.000000       119496.4       478114.4
       12762.80       2.000000       119390.4       479181.4
       12767.65       2.000000       119300.4       480153.4
       12772.61       2.000000       118617.4       478529.4
       12777.68       2.000000       119291.4       482080.4
       12782.85       2.000000       119408.4       484980.4
       12788.14       2.000000       119188.4       486652.4
       12793.54       2.000000       119504.4       489760.4
       12799.04       2.000000       119749.4       491679.4
       12804.66       2.000000       120224.4       494553.4
       12810.38       2.000000       119820.4       492913.4
       12816.21       2.000000       119672.4       492024.4
       12822.16       2.000000       119676.4       491699.4
       12828.21       2.000000       119625.4       491199.4
       12834.38       2.000000       119676.4       491426.4
       12840.65       2.000000       119178.4       489058.4
       12847.03       2.000000       119667.4       490848.4
       12853.52       2.000000       119383.4       489892.4
       12860.13       2.000000       119710.4       491303.4
       12866.84       2.000000       119400.4       490664.4
       12873.66       2.000000       119538.4       491621.4
       12880.59       2.000000       119402.4       491729.4
       12887.63       2.000000       119277.4       491985.4
       12894.78       2.000000       119213.4       492377.4
       12902.04       2.000000       119205.4       493617.4
       12909.41       2.000000       119960.4       498213.4
       12916.88       2.000000       119915.4       499324.4
       12924.47       2.000000       119750.4       499501.4
       12932.17       2.000000       119813.4       500515.4
       12939.98       2.000000       119730.4       500581.4
       12947.90       2.000000       119817.4       501797.4
       12955.92       2.000000       119568.4       501451.4
       12964.06       2.000000       119528.4       501797.4
       12972.30       2.000000       119655.4       503009.4
       12980.66       2.000000       119586.4       503058.4
       12989.13       2.000000       119628.4       503802.4
       12997.70       2.000000       119584.4       503985.4
       13006.38       2.000000       119448.4       503877.4
       13015.18       2.000000       119466.4       504671.4
       13024.08       2.000000       119565.4       505777.4
       13033.09       2.000000       119379.4       505766.4
       13042.22       2.000000       119414.4       506737.4
       13051.45       2.000000       119457.4       507698.4
       13060.79       2.000000       119919.4       510828.4
       13070.24       2.000000       119898.4       511691.4
       13079.80       2.000000       119732.4       512066.4
       13089.47       2.000000       119849.4       513543.4
       13099.25       2.000000       119723.4       513921.4
       13109.14       2.000000       119787.4       515024.4
       13119.14       2.000000       119741.4       515778.4
       13129.25       2.000000       119703.4       516465.4
       13139.47       2.000000       119704.4       517314.4
       13149.80       2.000000       119626.4       517690.4
       13160.24       2.000000       119461.4       517825.4
       13170.79       2.000000       119548.4       518975.4
       13181.44       2.000000       119499.4       519540.4
       13192.21       2.000000       119629.4       520909.4
       13203.09       2.000000       119346.4       520480.4
       13214.07       2.000000       119446.4       521758.4
       13225.17       2.000000       119476.4       522947.4
       13236.37       2.000000       119387.4       523523.4
       13247.69       2.000000       119794.4       526111.4
       13259.11       2.000000       119923.4       527711.4
       13270.65       2.000000       118166.4       520933.4
       13282.29       2.000000       119533.4       528035.4
       13294.04       2.000000       119875.4       530688.4
       13305.91       2.000000       120097.4       532501.4
       13317.88       2.000000       120042.4       533642.4
       13329.96       2.000000       119657.4       532854.4
       13342.15       2.000000       119979.4       535208.4
       13354.46       2.000000       119853.4       535675.4
       13366.87       2.000000       119625.4       535579.4
       13379.39       2.000000       119751.4       537140.4
       13392.02       2.000000       119776.4       538121.4
       13404.76       2.000000       119580.4       538285.4

File: strontianite.xdi
# XDI/1.0
# Column.1: energy eV
# Column.2: i0
# Column.3: itrans
# Beamline.name: SSRL 4-3 (?)
# Detector.I0: N2 15cm
# Detector.I1: Ar 30cm
# Element.edge: K
# Element.symbol: Sr
# Mono.d_spacing: 1.92009
# Mono.name: Si(220)
# Mono.notes: (?) unfocussed, detuned 50%, clockwise at E=16800eV
# Sample.formula: SrCO3
# Sample.name: SrCO3 strontianite
# Sample.prep: powder mixed with B2O3 (1:10)
# Sample.reference: none
# Sample.temperature: 12K
# Scan.start_time: 1997-03-17 12:43:45
# ///
#    Note: mono d_spacing is nominal!
#     exafs to K15
#     331  E XMU  I0
#-------------
#   energy   i0   itrans
   15700  37319.2  43244.2
   15720  36836.2  42846.2
   15739.9  35668.2  41590.2
   15759.9  36122.2  42307.2
   15780  35608.2  41835.2
   15800  35268.2  41579.2
   15820  34780.2  41124.2
   15840  34486.2  40932.2
   15860  33985.2  40433.2
   15880  33535.2  40009.2
   15900  33149.2  39685.2
   15919.9  32737.2  39289.2
   15939.9  32356.2  38956.2
   15960  31951.2  38581.2
   15980  31388.2  38000.2
   16000  31058.2  37685.2
   16020  30666.2  37314.2
   16039.9  30221.2  36824.2
   16060  29816.2  36395.2
   16080.1  29363.2  35714.2
   16099.9  28899.2  30501.2
   16120  28507.2  23166.2
   16122.4  28420.2  23414.2
   16125  28329.2  23494.2
   16127.4  28252.2  23471.2
   16130  28136.2  23208.2
   16132.4  27917.2  22742.2
   16135  27861.2  22373.2
   16137.4  27830.2  22031.2
   16140  27778.2  21572.2
   16142.4  27739.2  21152.2
   16145  27655.2  20824.2
   16147.4  27549.2  20659.2
   16150  27458.2  20666.2
   16152.4  27364.2  20760.2
   16155  27260.2  20948.2
   16156.4  27207.2  21063.2
   16157.8  27126.1  21171
   16159.4  27054  21317.8
   16160.9  26977.8  21421.4
   16162.6  26926.6  21530
   16164.4  26858.3  21608.5
   16166.3  26799  21702.8
   16168.2  26809.7  21816.1
   16170.1  26787.2  21875.3
   16172.2  26808.8  21931.4
   16174.4  26798.3  21873.3
   16176.7  26838.7  21791.2
   16178.9  26945.1  21774
   16181.3  27031.5  21716.7
   16183.8  27254.8  21832.3
   16186.4  27528  22008.8
   16189  27787.2  22201.2
   16191.8  27995.4  22349.5
   16194.5  28168.5  22467.7
   16197.5  28262.6  22530.8
   16200.4  28422.6  22623.8
   16203.4  28554.5  22719.7
   16206.5  28695.5  22847.6
   16209.8  28826.3  23054.3
   16213  29099.1  23375.9
   16216.4  29302.9  23732.4
   16219.9  29430.6  24028.9
   16223.4  29655.3  24348.2
   16226.9  29860.9  24590.4
   16230.6  30030.5  24759.6
   16234.4  30234  24916.6
   16238.2  30510.5  25112.6
   16242.1  30756  25277.4
   16246.1  30983.3  25401.2
   16250.3  31228.7  25516.8
   16254.3  31498  25668.4
   16258.7  31714.2  25905.8
   16262.9  32019.4  26283.2
   16267.3  32265.6  26572.5
   16271.8  32554.6  26782.6
   16276.4  32872.7  27010.7
   16281  33179.7  27227.7
   16285.7  33397.6  27444.6
   16290.5  33738.6  27834.4
   16295.4  34052.4  28230
   16300.3  34390.2  28585.6
   16305.4  34628  28901.1
   16310.5  35034.7  29309.5
   16315.6  35310.3  29580.8
   16320.9  35634  29828
   16326.2  35936.5  30010.1
   16331.7  36277  30159.1
   16337.2  36572.5  30419
   16342.8  36921.9  30783.9
   16348.5  37239.3  31176.6
   16354.3  37611.6  31575.2
   16360  37946.9  31984.7
   16366  38161.1  32262.1
   16372.1  38525.3  32587.5
   16378.1  38946.5  32911.7
   16384.2  39257.5  33155.8
   16390.4  39571.6  33519.9
   16396.8  39966.6  33953.8
   16403.2  40248.5  34299.7
   16409.6  40680.4  34720.4
   16416.2  40971.2  34988.1
   16422.8  41220  35186.6
   16429.5  41666.8  35546.1
   16436.3  41988.5  35868.4
   16443.2  42348.1  36253.7
   16450  42704.7  36641.8
   16457.2  42991.3  36995.9
   16464.2  43340.8  37357.9
   16471.4  43587.3  37638.8
   16478.8  43909.7  37992.5
   16486  44263  38364.2
   16493.6  44607.3  38678.8
   16500.9  44909.6  38945.3
   16508.5  45116.8  39220.7
   16516.3  45409  39539
   16523.9  45707.1  39861.2
   16531.9  46125.2  40260.3
   16539.7  46294.2  40504.3
   16547.6  46637.2  40836.2
   16555.8  46874.1  41154
   16564  47095  41440.7
   16572.2  47400.8  41742.3
   16580.4  47791.6  42168.8
   16588.8  48209.3  42514.2
   16597.3  48387  42768.6
   16605.7  48577.7  43054.8
   16614.5  48871.3  43421.9
   16623.1  49084.8  43707
   16631.9  49300.3  43946.9
   16640.7  49522.7  44187.7
   16649.7  49735.1  44445.5
   16658.7  50052.5  44773.1
   16667.9  49993.8  44801.7
   16677  50445  45320.1
   16686.4  50685.3  45612.5
   16695.6  50823.4  45850.7
   16705  50950.5  46042.9
   16714.7  51093.6  46186.9
   16724.1  51281.6  46439.9
   16733.8  51349.6  46560.8
   16743.6  51649.5  46909.6
   16753.3  51805.3  47162.2
   16763.3  51856.2  47269.8
   16773.2  51883.9  47366.3
   16783.3  51955.7  47556.7
   16793.4  52188.3  47809
   16803.7  52380  48060.1
   16814  52322.5  48104.2
   16824.3  52416.1  48298.2
   16834.8  52641.5  48547.1
   16845.4  52746  48704.9
   16855.9  52832.4  48841.6
   16866.7  52820.7  48911.3
   16877.4  52853  49031.8
   16888.4  52748.2  49058.2
   16899.2  52739.4  49106.5
   16910.2  52689.6  49139.7
   16921.4  52700.7  49202.8
   16932.6  52627.7  49205.9
   16943.8  52494.7  49171.8
   16955.1  52493.7  49255.6
   16966.5  52393.6  49242.4
   16978  52352.4  49255
   16989.6  52197.2  49165.6
   17001.3  52157  49221

File: zn_znse_rt.xdi
# XDI/1.0 GSE/1.0
# Column.1: energy eV
# Column.2: time
# Column.3: i0
# Column.4: itrans
# Element.edge: K
# Element.symbol: Zn
# Scan.edge_energy: 9659.0
# Mono.name: Si 111
# Mono.d_spacing: 3.13550
# Beamline.name: 13-BM-D
# Beamline.collimation: none
# Beamline.focusing: no
# Beamline.harmonic_rejection: Rh-coated mirror, detuned
# Facility.name: APS
# Facility.energy: 7.00 GeV
# Facility.xray_source: APS bending magnet
# Scan.start_time: 2008-04-10T17:00:26
# Detector.I0: 10cm  N2
# Detector.I1: 10cm  N2 (?)
# Sample.name: ZnSe
# Sample.prep: powder on tape, 6 layers
# ///
# room temperature
# measured at beamline 13-BM-D
#----
#   energy       time                i0           itrans
       9509.000       1.000000       103316.7       169556.2
       9524.000       1.000000       100141.7       165477.2
       9539.000       1.000000       100383.7       167101.2
       9554.000       1.000000       100648.7       168696.2
       9569.000       1.000000       100439.7       169553.2
       9584.000       1.000000       100388.7       170654.2
       9599.000       1.000000       100330.7       171760.2
       9614.000       1.000000       100468.7       173198.2
       9629.000       1.000000       100674.7       174594.2
       9644.000       1.000000       100503.7       175145.2
       9649.500       1.000000       100854.7       175757.2
       9650.250       1.000000       101026.7       176052.2
       9651.000       1.000000       101070.7       176104.2
       9651.750       1.000000       100963.7       175877.2
       9652.500       1.000000       100874.7       175621.2
       9653.250       1.000000       100926.7       175640.2
       9654.000       1.000000       100962.7       175581.2
       9654.750       1.000000       100959.7       175448.2
       9655.500       1.000000       100900.7       175197.2
       9656.250       1.000000       100904.7       174984.2
       9657.000       1.000000       100954.7       174766.2
       9657.750       1.000000       100955.7       174327.2
       9658.500       1.000000       100867.7       173707.2
       9659.250       1.000000       100820.7       172998.2
       9660.000       1.000000       100868.7       172011.2
       9660.750       1.000000       100884.7       170408.2
       9661.500       1.000000       100772.7       167764.2
       9662.250       1.000000       100798.7       162857.2
       9663.000       1.000000       100659.7       152700.2
       9663.750       1.000000       100706.7       136040.2
       9664.500       1.000000       100780.7       120579.2
       9665.250       1.000000       100758.7       114293.2
       9666.000       1.000000       100699.7       110283.2
       9666.750       1.000000       100782.7       104715.2
       9667.500       1.000000       100728.7       103011.2
       9668.250       1.000000       100685.7       108719.2
       9669.000       1.000000       100634.7       116195.2
       9669.750       1.000000       100753.7       121102.2
       9670.500       1.000000       100656.7       121796.2
       9671.250       1.000000       100609.7       120971.2
       9672.000       1.000000       100671.7       121293.2
       9672.750       1.000000       100552.7       121982.2
       9673.500       1.000000       100561.7       121167.2
       9674.250       1.000000       100556.7       118748.2
       9675.000       1.000000       100612.7       116844.2
       9675.750       1.000000       100430.7       116634.2
       9676.500       1.000000       100585.7       119397.2
       9677.250       1.000000       100535.7       122560.2
       9678.000       1.000000       100431.7       124937.2
       9678.750       1.000000       100427.7       126151.2
       9679.500       1.000000       100548.7       126583.2
       9680.250       1.000000       100438.7       126574.2
       9681.000       1.000000       100415.7       126899.2
       9681.750       1.000000       100427.7       127404.2
       9682.500       1.000000       100295.7       127566.2
       9683.250       1.000000       100436.7       127945.2
       9684.000       1.000000       100427.7       128066.2
       9684.750       1.000000       100403.7       127972.2
       9685.500       1.000000       100345.7       127590.2
       9686.250       1.000000       100480.7       127270.2
       9687.000       1.000000       100383.7       126752.2
       9687.750       1.000000       100402.7       126476.2
       9688.500       1.000000       100265.7       126119.2
       9689.861       1.000000       100227.7       125771.2
       9692.517       1.000000       100211.7       125689.2
       9695.282       1.000000       100262.7       125205.2
       9698.157       1.000000       100161.7       124478.2
       9701.142       1.000000       100252.7       125067.2
       9704.236       1.000000       100246.7       125022.2
       9707.439       1.000000       100133.7       124782.2
       9710.753       1.000000       100115.7       124945.2
       9714.177       1.000000       100435.7       124809.2
       9717.709       1.000000       100706.7       125203.2
       9721.352       1.000000       100625.7       126047.2
       9725.104       1.000000       100488.7       127064.2
       9728.965       1.000000       100507.7       127750.2
       9732.936       1.000000       101065.7       127737.2
       9737.017       1.000000       100497.7       126069.2
       9741.207       1.000000       100604.7       126383.2
       9745.507       1.000000       100534.7       126685.2
       9749.916       1.000000       100409.7       126951.2
       9754.436       1.000000       100476.7       127819.2
       9759.064       1.000000       100470.7       128832.2
       9763.803       1.000000       100469.7       128916.2
       9768.650       1.000000       100424.7       129061.2
       9773.608       1.000000       100202.7       130013.2
       9778.676       1.000000       100939.7       131400.2
       9783.853       1.000000       100570.7       130951.2
       9789.139       1.000000       100258.7       130318.2
       9794.535       1.000000       100395.7       130250.2
       9800.040       1.000000       100331.7       129932.2
       9805.655       1.000000       100416.7       130196.2
       9811.381       1.000000       100320.7       130221.2
       9817.215       1.000000       100370.7       130865.2
       9823.159       1.000000       100363.7       131836.2
       9829.213       1.000000       100301.7       132984.2
       9835.376       1.000000       100349.7       134212.2
       9841.648       1.000000       100350.7       134809.2
       9848.031       1.000000       100193.7       135091.2
       9854.523       1.000000       101292.7       136458.2
       9861.125       1.000000       100441.7       135139.2
       9867.837       1.000000       100158.7       134999.2
       9874.657       1.000000       100132.7       135174.2
       9881.588       1.000000       100334.7       135847.2
       9888.628       1.000000       100687.7       136543.2
       9895.778       1.000000       100686.7       137188.2
       9903.037       1.000000       100702.7       138119.2
       9910.406       1.000000       100588.7       138775.2
       9917.885       1.000000       100677.7       139927.2
       9925.473       1.000000       100930.7       141313.2
       9933.171       1.000000       100554.7       141608.2
       9940.979       1.000000       100543.7       141788.2
       9948.896       1.000000       100632.7       142100.2
       9956.922       1.000000       100568.7       142171.2
       9965.059       1.000000       100478.7       142470.2
       9973.304       1.000000       100489.7       142946.2
       9981.659       1.000000       100695.7       143888.2
       9990.125       1.000000       101039.7       145043.2
       9998.699       1.000000       100400.7       145006.2
       10007.38       1.000000       99883.70       145049.2
       10016.18       1.000000       100664.7       147070.2
       10025.08       1.000000       100394.7       147546.2
       10034.09       1.000000       100325.7       148220.2
       10043.22       1.000000       100273.7       148812.2
       10052.45       1.000000       100427.7       149498.2
       10061.79       1.000000       100416.7       149905.2
       10071.24       1.000000       100264.7       150210.2
       10080.80       1.000000       100177.7       150577.2
       10090.47       1.000000       100625.7       152087.2
       10100.25       1.000000       100429.7       152514.2
       10110.14       1.000000       100228.7       153082.2
       10120.14       1.000000       100197.7       153974.2
       10130.25       1.000000       100330.7       155013.2
       10140.47       1.000000       100516.7       156215.2
       10150.80       1.000000       100093.7       156303.2
       10161.24       1.000000       100466.7       157621.2
       10171.79       1.000000       100844.7       158939.2
       10182.44       1.000000       100842.7       159614.2
       10193.21       1.000000       100980.7       160511.2
       10204.09       1.000000       100560.7       160548.2
       10215.07       1.000000       101105.7       162254.2
       10226.17       1.000000       100920.7       162859.2
       10237.37       1.000000       100151.7       162446.2
       10248.69       1.000000       100749.7       164369.2
       10260.11       1.000000       100780.7       165322.2
       10271.65       1.000000       101093.7       166792.2
       10283.29       1.000000       100800.7       167211.2
       10295.04       1.000000       100510.7       167554.2
       10306.91       1.000000       100830.7       168958.2
       10318.88       1.000000       101146.7       170263.2
       10330.96       1.000000       100564.7       170194.2
       10343.15       1.000000       100604.7       171158.2
       10355.46       1.000000       100646.7       172129.2
       10367.87       1.000000       100789.7       173298.2
       10380.39       1.000000       100757.7       174204.2
       10393.02       1.000000       100563.7       174842.2
       10405.76       1.000000       100706.7       176106.2