Folder: XASDataLibrary/data (part 4)

File: as2o5_100K_scan3.xdi
# XDI/1.0
# Column.1: energy eV
# Column.2: i0
# Column.3: itrans
# Column.4: irefer
# Beamline.name: SSRL 2-3
# Beamline.notes: vert slits = 0.6mm
# Detector.I0: N2 15cm
# Detector.I1: Ar 30cm
# Detector.I2: Ar 15cm
# Element.edge: K
# Element.symbol: As
# Mono.d_spacing: 3.13550
# Mono.name: Si(111)
# Mono.notes: unfocused, detuned 75%, clockwise at E=12000eV
# Sample.formula: As2O5
# Sample.name: As2O5 arsenic (V) oxide
# Sample.prep: powder on tape (5 layers)
# Sample.reference: GaAs powder
# Sample.temperature: 100K
# Scan.start_time: 1997-04-19 21:41:34
# ///
#    Note: mono d_spacing is nominal!
#     exafs to K16, GaAs in IR
#     413  E XMU XMUR I0
#-------------
#   energy   i0   itrans  irefer
   11634.9  523836  93061.5  37898
   11654.9  518803  92865.5  38282
   11675.1  514093  92710.5  38679
   11695  508065  92281.5  38947
   11714.9  503134  92074.5  39305
   11735  498999  91977.5  39718
   11755.1  493115  91513.5  39969
   11775  488571  91293.5  40345
   11794.9  483558  90935.5  40635
   11814.9  478146  90410.5  40834
   11835  473419  89736.5  40903
   11845.4  470304  88909.5  40647
   11846.6  470798  88938.5  40658
   11847.5  470319  88792.5  40597
   11848.4  469866  88624.5  40519
   11849.6  468827  88359.5  40382
   11850.6  468792  88260.5  40341
   11851.5  468565  88128.5  40261
   11852.4  468739  88042.5  40211
   11853.6  469031  87928.5  40136
   11854.5  469002  87744.5  40019
   11855.4  468404  87481.5  39861
   11856.4  468534  87291.5  39716
   11857.6  468612  86946.5  39457
   11858.5  467762  86497.5  39157
   11859.4  467294  86064.5  38811
   11860.6  467323  85436.5  38261
   11861.6  467288  84881.5  37699
   11862.5  466265  83963.5  36788
   11863.4  466019  83073.5  35595
   11864.6  465506  81316.5  32699
   11865.5  465634  79617.5  29546
   11866.5  465627  77424.5  26053
   11867.4  465633  74198.5  22504
   11868.6  466072  67330.5  18507
   11869.5  465107  60070.5  16053
   11870.5  464609  49910.5  13264
   11871.4  464613  39036.5  10438
   11872.6  463529  23497.5  6409
   11873.5  463930  15174.5  4219
   11874.4  463425  11225.5  3199
   11875.4  463938  10883.5  3201
   11876.6  463636  14246.5  4341
   11877.5  463085  17671.5  5475
   11878.4  463153  21480.5  6730
   11879.4  463028  24698.5  7803
   11880.6  462221  28287.5  9018.99
   11881.5  462348  29964.5  9588
   11882.4  461941  30814.5  9876
   11883.7  461719  31298.5  10022
   11884.6  461120  31391.5  10048
   11885.5  460716  31447.5  10072
   11886.4  460240  31538.5  10123
   11887.6  460687  31811.5  10225
   11888.6  460285  32060.5  10304
   11889.5  460739  32487.5  10432
   11890.4  460641  32975.5  10578
   11891.6  460501  33766.5  10821
   11892.6  460472  34371.5  11028
   11893.5  460197  34886.5  11219
   11894.4  459386  35355.5  11421
   11895.6  459368  35957.3  11696.8
   11896.9  459181  36410.3  11905.8
   11898.4  459603  36980.3  12102
   11899.7  459229  37572.4  12272.2
   11901.2  459485  38686.6  12604.5
   11903  460169  40233.7  13100.9
   11904.6  461108  41415.9  13509.4
   11906.4  461571  42681.1  13967.9
   11908.3  462579  43836.4  14374.6
   11910.1  463083  44644.6  14639.2
   11912.3  464969  45068  14754
   11914.2  465924  44757.3  14622.9
   11916.3  468292  44077.7  14414.8
   11918.8  468930  42760.1  14109.8
   11921  470893  41660.5  13856.9
   11923.4  472882  40715  13594.1
   11925.9  474625  40091.5  13415.3
   11928.4  476627  39615  13260.7
   11930.9  479106  39078.6  13053
   11933.7  482732  38496.2  12783.5
   11936.4  484582  37980.8  12538.1
   11939.2  486828  37811.4  12458.7
   11942.3  488404  37714.1  12472.4
   11945.1  493099  38024.8  12622.2
   11948.2  497661  38375.6  12779.1
   11951.3  500334  38722.3  12944
   11954.8  503481  39290.1  13185
   11957.9  508309  39994  13489.1
   11961.3  511782  40610.9  13704.3
   11964.7  515683  41175.8  13886.6
   11968.5  519679  41761.7  14140.9
   11971.9  524068  42530.6  14560.3
   11975.6  527585  43522.6  15047.8
   11979.4  532554  44698.7  15515.3
   11983.1  536290  45658.7  15871
   11987.2  538888  46305.8  16044.7
   11991.3  546316  47191.9  16253.5
   11995.3  551369  47891.1  16375.4
   11999.4  555932  48429.2  16494.3
   12003.5  560865  48930.5  16706.4
   12007.9  565119  49278.7  16908.4
   12012.3  569726  49606  17111.6
   12016.7  577914  50167.3  17409.9
   12021.1  582430  50455.6  17614.2
   12025.8  588991  50811  17858.7
   12030.5  594159  50871.3  17967.2
   12035.3  600428  51026.8  18106.7
   12040  605935  51276.2  18278.4
   12045  612410  51936.7  18594.1
   12050.1  617865  52732.2  18948.9
   12055.2  622084  53341.8  19161.8
   12060.2  631146  54296.4  19478.8
   12065.3  637861  55043  19813.8
   12070.7  644341  55806.6  20138.9
   12076.1  649828  56551.3  20365.1
   12081.5  657500  57454  20646.4
   12086.9  663593  58195.7  20913.7
   12092.6  672547  59210.5  21354.2
   12098.3  678154  60007.3  21798.7
   12104.1  685214  60937.1  22283.3
   12109.8  691567  61815  22746.9
   12115.9  699761  62828.9  23288.7
   12121.6  707406  63737.8  23799.5
   12127.7  714024  64657.7  24294.4
   12133.8  722247  65702.7  24776.3
   12140.2  729447  66605.8  25123.4
   12146.3  736893  67468.8  25446.5
   12152.8  744968  68241.9  25751.7
   12159.2  752323  68872  26031
   12165.6  759223  69551.2  26370.4
   12172.4  768526  70525.3  26844.8
   12178.9  776563  71584.5  27342.3
   12185.7  784971  72683.7  27835.9
   12192.5  792512  73535.1  28275.6
   12199.6  799975  74387.3  28759.3
   12206.4  807784  75479.6  29309.1
   12213.5  817085  76858  30021
   12220.7  824954  77791.4  30599
   12227.8  832862  78659.8  31135.1
   12235  840450  79750.2  31723.2
   12242.5  849064  80927.8  32346.5
   12250  857610  82130.2  32897.7
   12257.5  864907  83081.8  33298.1
   12265.1  873215  84225.3  33853.5
   12272.6  882243  85451.9  34447.1
   12280.5  889334  86565.6  35025.7
   12288.4  899700  88078.3  35773.4
   12296.3  906158  89169  36400.1
   12304.2  916587  90561.7  37179.9
   12312.1  924705  91627.5  37796.9
   12320.4  932640  92644.2  38432.9
   12328.7  941048  93841.1  39132.9
   12336.6  950139  95115.9  39874.1
   12345.2  958011  96284.8  40565.3
   12353.5  965633  97405.7  41240.6
   12362.2  972934  98560.6  41891
   12370.5  982470  99900.7  42660.5
   12379.2  991135  101270  43428
   12387.9  998734  102393  44067.6
   12396.9  1.00774e+06  103687  44797.3
   12405.6  1.01582e+06  104927  45510
   12414.7  1.02341e+06  106211  46259.9
   12423.8  1.03404e+06  107937  47239.8
   12432.8  1.04027e+06  109122  48012.8
   12441.9  1.04948e+06  110480  48865.9
   12451.4  1.05736e+06  111703  49706
   12460.5  1.06399e+06  112817  50468.3
   12470  1.07267e+06  114312  51416.6
   12479.5  1.08276e+06  115991  52442
   12489  1.09037e+06  117385  53317.5
   12498.9  1.09744e+06  118794  54200
   12508.4  1.10398e+06  120030  55000.6
   12518.3  1.11134e+06  121382  55895.3
   12528.2  1.11832e+06  122619  56747.1
   12538.1  1.12718e+06  124138  57718
   12548.1  1.13409e+06  125449  58583.9
   12558.4  1.14153e+06  126835  59538.9
   12568.7  1.14887e+06  128287  60539
   12578.7  1.15693e+06  129744  61529.2
   12589.1  1.16434e+06  131183  62539.4
   12599.4  1.17224e+06  132613  63585.7
   12610.2  1.17846e+06  133925  64576.1
   12620.6  1.1864e+06  135444  65680.6
   12631.3  1.19352e+06  137016  66811.2
   12642.1  1.20034e+06  138596  67933.8
   12652.9  1.2057e+06  139864  68915.5
   12663.8  1.21123e+06  141080  69859.2
   12674.6  1.21757e+06  142481  70915.1
   12685.8  1.22528e+06  144082  72073.1
   12696.7  1.23331e+06  145742  73292.1
   12708  1.23849e+06  147090  74367.2
   12719.3  1.24804e+06  149004  75753.4
   12730.6  1.25295e+06  150418  76902.6
   12741.9  1.2577e+06  151753  78018
   12753.6  1.26305e+06  153247  79252.4
   12764.9  1.2696e+06  154763  80444.9
   12776.7  1.28026e+06  156758  81956.4
   12788.4  1.28423e+06  158017  83107
   12800.2  1.28787e+06  159228  84206.8
   12812  1.29471e+06  160869  85554.6
   12824.2  1.29676e+06  161973  86634.4
   12836  1.30353e+06  163595  87956.4
   12848.2  1.31134e+06  165368  89387.4
   12860.5  1.31278e+06  166403  90461.6
   12872.4  1.3183e+06  168004  91835.8
   12885.1  1.32269e+06  169488  93195

File: as2s3_10K_scan1.xdi
# XDI/1.0
# Column.1: energy eV
# Column.2: i0
# Column.3: itrans
# Column.4: irefer
# Beamline.name: SSRL 2-3
# Beamline.notes: vert slits = 0.6mm
# Detector.I0: N2 15cm
# Detector.I1: Ar 30cm
# Detector.I2: Ar 15cm
# Element.edge: K
# Element.symbol: As
# Mono.d_spacing: 3.13550
# Mono.name: Si(111)
# Mono.notes: unfocused, detuned 75%, clockwise at E=12000eV
# Sample.formula: As2S3
# Sample.name: As2S3 arsenious sulfide (orpiment)
# Sample.prep: powder on tape (5 layers)
# Sample.reference: GaAs powder
# Sample.temperature: 10K
# Scan.start_time: 1997-04-19 16:23:01
# ///
#    Note: mono d_spacing is nominal!
#     exafs to K16, GaAs in IR
#     413  E XMU XMUR I0
#-------------
#   energy   i0   itrans  irefer
   11634.9  583761  92987.5  38257
   11654.9  579259  93014.5  38722
   11675.1  574120  92927.5  39136
   11695  565371  92253.5  39322
   11714.9  561438  92320.5  39810
   11735  557078  92303.5  40258
   11755.1  550642  91946.5  40552
   11775  546050  91827.5  40957
   11794.9  539035  91305.5  41191
   11814.9  533678  90950.5  41467
   11835  527822  90235.5  41537
   11845.4  524754  89472.5  41315
   11846.6  524671  89377.5  41271
   11847.5  524224  89277.5  41229
   11848.4  524161  89202.5  41193
   11849.6  523628  88983.5  41096
   11850.6  522873  88756.5  40988
   11851.5  522021  88486.5  40851
   11852.4  521373  88266.5  40742
   11853.6  521695  88094.5  40655
   11854.5  521355  87833.5  40514
   11855.4  521746  87668.5  40406
   11856.4  521423  87318.5  40216
   11857.6  521783  86874.5  39953
   11858.5  521024  86278.5  39620
   11859.4  520830  85625.5  39249
   11860.6  520418  84454.5  38563
   11861.6  520104  83320.5  37894
   11862.5  518631  81510.5  36851
   11863.4  519118  79459.5  35636
   11864.6  518430  74523.5  32777
   11865.5  517756  68348.5  29311
   11866.5  517293  59868.5  24798
   11867.4  518301  47369.5  18605
   11868.6  517594  28718.5  10187
   11869.5  517599  19042.5  6083
   11870.5  517841  15056.5  4263
   11871.4  517161  17196.5  4634
   11872.6  516115  25477.5  6916.99
   11873.5  515786  31892.5  8796
   11874.4  515257  35657.5  9972
   11875.4  515060  37034.5  10527
   11876.6  515508  36154.5  10583
   11877.5  515593  35215.5  10578
   11878.4  515049  34761.5  10700
   11879.4  514836  34875.5  10919
   11880.6  514964  35470.5  11278
   11881.5  513789  35843.5  11485
   11882.4  514598  36280.5  11679
   11883.7  513501  36658.5  11834
   11884.6  513386  36947.5  11924
   11885.5  512581  37147.5  11988
   11886.4  512076  37316.5  12047
   11887.6  511501  37550.5  12137
   11888.6  511912  37779.5  12230
   11889.5  512158  38032.5  12314
   11890.4  511788  38263.5  12381
   11891.6  511175  38628.5  12487
   11892.6  511280  38953.5  12590
   11893.5  510940  39223.5  12672
   11894.4  511262  39565.5  12801
   11895.6  510431  39919.2  12997.8
   11896.9  510525  40344.3  13221.8
   11898.4  510597  40824.4  13461
   11899.7  510859  41173.4  13586.2
   11901.2  510521  41497.5  13650.5
   11903  510669  41755.7  13707.9
   11904.6  511908  41944.9  13773.4
   11906.4  512504  41966.1  13812.9
   11908.3  513531  41875.4  13816.6
   11910.1  514613  41669.7  13773.3
   11912.3  516001  41268  13634
   11914.2  517261  40834.3  13465.9
   11916.3  519633  40346.7  13281.8
   11918.8  520964  39699.1  13136.8
   11921  522663  39280.5  13114.9
   11923.4  524527  38996  13103.1
   11925.9  526715  38905.5  13108.3
   11928.4  528419  38941  13135.6
   11930.9  531039  39176.6  13201
   11933.7  534541  39605.1  13284.5
   11936.4  537275  40203.8  13401.1
   11939.2  539424  40882.4  13571.7
   11942.3  541722  41734.1  13877.4
   11945.1  544197  42552.8  14201.2
   11948.2  550644  43714.6  14642.1
   11951.3  554371  44551.3  14980
   11954.8  557806  45210.2  15262
   11957.9  561441  45672  15494.1
   11961.3  564794  45960.8  15633.3
   11964.7  568717  46182.7  15696.6
   11968.5  573149  46332.7  15771.9
   11971.9  577146  46391.6  15939.3
   11975.6  580758  46386.6  16119.8
   11979.4  584640  46379.6  16204.3
   11983.1  589152  46436.7  16259
   11987.2  591726  46364.8  16217.7
   11991.3  598902  46705.9  16246.5
   11995.3  605217  47130  16276.4
   11999.4  610146  47610.2  16347.3
   12003.5  614243  48212.5  16572.4
   12007.9  621064  49243.7  17010.5
   12012.3  625097  50191.9  17423.6
   12016.7  632285  51432.3  17963.9
   12021.1  639613  52628.6  18480.2
   12025.8  645228  53549  18937.7
   12030.5  651581  54294.4  19305.2
   12035.3  657058  54832.8  19595.7
   12040  662301  55269.2  19834.4
   12045  669792  55801.7  20118.1
   12050.1  676530  56209.2  20355.9
   12055.2  681628  56495.8  20475.8
   12060.2  688444  56917.4  20582.8
   12065.3  696270  57482  20816.8
   12070.7  704096  58088.7  21126.9
   12076.1  711215  58702.3  21316.1
   12081.5  718512  59449  21537.4
   12086.9  725177  60246.8  21808.7
   12092.6  734230  61315.5  22243.2
   12098.3  742074  62359.3  22785.7
   12104.1  749343  63426.1  23343.3
   12109.8  756176  64465  23869.9
   12115.9  765431  65725.9  24512.7
   12121.6  774364  66884.8  25125.5
   12127.7  780519  67739.8  25620.4
   12133.8  789351  68738.8  26110.3
   12140.2  797764  69623.8  26468.4
   12146.3  806560  70458.8  26771.5
   12152.8  814170  71145.9  27047.7
   12159.2  823192  71935  27386
   12165.6  829837  72541.2  27677.4
   12172.4  838868  73440.3  28138.8
   12178.9  848215  74419.5  28625.3
   12185.7  856834  75452.8  29111.9
   12192.5  865555  76566  29652.6
   12199.6  874137  77757.3  30266.3
   12206.4  884418  79112.7  30929.2
   12213.5  892534  80309  31584.1
   12220.7  900567  81519.4  32271
   12227.8  909222  82741.8  32976.1
   12235  918672  83990.3  33641.2
   12242.5  925730  85026.7  34212.4
   12250  936024  86336.3  34851.7
   12257.5  944339  87411.8  35311.1
   12265.1  950671  88286.3  35724.5
   12272.6  960484  89424  36295.1
   12280.5  971739  90717.6  36943.7
   12288.4  980283  91779.2  37521.3
   12296.3  988856  92854  38166.1
   12304.2  996973  93934.7  38808.9
   12312.1  1.00625e+06  95192.4  39532.9
   12320.4  1.01391e+06  96369.2  40245.8
   12328.7  1.0226e+06  97685.1  40993.9
   12336.6  1.03119e+06  98996  41770.1
   12345.2  1.04112e+06  100490  42644.3
   12353.5  1.05081e+06  101958  43452.6
   12362.2  1.05675e+06  103095  44123
   12370.5  1.06654e+06  104546  44947.4
   12379.2  1.07536e+06  105895  45722
   12387.9  1.08458e+06  107252  46470.6
   12396.9  1.09098e+06  108295  47098.3
   12405.6  1.1005e+06  109664  47870
   12414.7  1.10911e+06  110930  48624.9
   12423.8  1.11689e+06  112130  49379.8
   12432.8  1.12377e+06  113258  50135.8
   12441.9  1.13102e+06  114452  50928.9
   12451.4  1.13941e+06  115852  51851
   12460.5  1.14768e+06  117216  52754.3
   12470  1.15717e+06  118752  53730.6
   12479.5  1.16654e+06  120329  54740
   12489  1.17649e+06  121967  55756.4
   12498.9  1.18024e+06  123023  56494
   12508.4  1.18732e+06  124373  57363.6
   12518.3  1.19489e+06  125828  58322.3
   12528.2  1.20332e+06  127304  59270.1
   12538.1  1.21193e+06  128854  60286.9
   12548.1  1.21857e+06  130137  61176.9
   12558.4  1.22528e+06  131456  62099.9
   12568.7  1.23304e+06  132890  63109
   12578.7  1.24218e+06  134481  64219.2
   12589.1  1.24907e+06  135827  65193.4
   12599.4  1.2575e+06  137371  66310.7
   12610.2  1.2615e+06  138465  67230.1
   12620.6  1.26918e+06  139990  68332.6
   12631.3  1.27713e+06  141593  69506.2
   12642.1  1.28329e+06  143063  70590.8
   12652.9  1.29069e+06  144648  71746.5
   12663.8  1.29451e+06  145842  72718.3
   12674.6  1.30142e+06  147383  73840.2
   12685.8  1.3074e+06  148839  74965.1
   12696.7  1.31414e+06  150360  76115.1
   12708  1.32041e+06  151842  77289.2
   12719.3  1.32941e+06  153644  78618.4
   12730.6  1.3339e+06  154921  79717.6
   12741.9  1.34226e+06  156633  81057.9
   12753.6  1.34914e+06  158224  82328.4
   12764.9  1.35473e+06  159652  83536.8
   12776.7  1.36173e+06  161326  84903.4
   12788.4  1.36758e+06  162831  86167.1
   12800.2  1.37225e+06  164283  87406.8
   12812  1.37655e+06  165667  88650.6
   12824.2  1.38113e+06  167108  89918.5
   12836  1.38789e+06  168815  91303.4
   12848.2  1.39162e+06  170203  92573.4
   12860.5  1.3971e+06  171798  93962.5
   12872.4  1.40311e+06  173433  95365.7
   12885.1  1.40498e+06  174603  96561

File: as2s3_100K_scan1.xdi
# XDI/1.0
# Column.1: energy eV
# Column.2: i0
# Column.3: itrans
# Column.4: irefer
# Beamline.name: SSRL 2-3
# Beamline.notes: vert slits = 0.6mm
# Detector.I0: N2 15cm
# Detector.I1: Ar 30cm
# Detector.I2: Ar 15cm
# Element.edge: K
# Element.symbol: As
# Mono.d_spacing: 3.13550
# Mono.name: Si(111)
# Mono.notes: unfocused, detuned 75%, clockwise at E=12000eV
# Sample.formula: As2S3
# Sample.name: As2S3 arsenious sulfide (orpiment)
# Sample.prep: powder on tape (5 layers)
# Sample.reference: GaAs powder
# Sample.temperature: 100K
# Scan.start_time: 1997-04-19 22:41:20
# ///
#    Note: mono d_spacing is nominal!
#     exafs to K16, GaAs in IR
#     413  E XMU XMUR I0
#-------------
#   energy   i0   itrans  irefer
   11634.9  522870  93227.5  38014
   11654.9  517087  92891.5  38342
   11675.1  511248  92509.5  38641
   11695  505740  92195.5  38949
   11714.9  501165  92042.5  39350
   11735  495964  91748.5  39675
   11755.1  491079  91479.5  40005
   11775  485957  91147.5  40323
   11794.9  481202  90882.5  40654
   11814.9  476319  90484.5  40911
   11835  470819  89772.5  40971
   11845.4  469058  89266.5  40859
   11846.6  468326  89092.5  40786
   11847.5  468537  89070.5  40777
   11848.4  467149  88745.5  40626
   11849.6  467496  88730.5  40609
   11850.6  466471  88435.5  40464
   11851.5  467166  88452.5  40463
   11852.4  466679  88249.5  40353
   11853.6  466822  88075.5  40241
   11854.5  466733  87841.5  40104
   11855.4  466608  87589.5  39956
   11856.4  466260  87208.5  39728
   11857.6  466616  86730.5  39412
   11858.5  466198  86109.5  39027
   11859.4  465797  85368.5  38564
   11860.6  464971  83845.5  37601
   11861.6  464828  82319.5  36619
   11862.5  463841  79824.5  35063
   11863.4  463930  76344.5  32864
   11864.6  462820  67380.5  27597
   11865.5  463230  56853.5  21967
   11866.5  463104  44704.5  16050
   11867.4  463320  32765.5  10648
   11868.6  463049  24675.5  6950
   11869.5  462780  26090.5  7008
   11870.5  462044  31808.5  8520
   11871.4  461640  38293.5  10372
   11872.6  460963  45391.5  12547
   11873.5  461051  47555.5  13365
   11874.4  460983  47576.5  13610
   11875.4  461259  46739.5  13689
   11876.6  461052  45823.5  13898
   11877.5  461063  45790.5  14163
   11878.4  460710  46073.5  14456
   11879.4  460786  46494.5  14718
   11880.6  460341  46974.5  15002
   11881.5  460623  47336.5  15171
   11882.4  459579  47515.5  15246
   11883.7  459316  47829.5  15336
   11884.6  458354  47945.5  15373
   11885.5  458572  48158.5  15450
   11886.4  457583  48242.5  15501
   11887.6  458748  48636.5  15650
   11888.6  458113  48795.5  15695
   11889.5  458381  49081.5  15780
   11890.4  457770  49262.5  15825
   11891.6  457781  49643.5  15925
   11892.6  457374  49894.5  16030
   11893.5  457225  50145.5  16153
   11894.4  456663  50365.5  16301
   11895.6  456837  50740.3  16540.8
   11896.9  456443  51036.3  16713.8
   11898.4  456463  51417.3  16848
   11899.7  456571  51671.4  16891.2
   11901.2  457059  51946.6  16934.5
   11903  457649  52157.7  17009.9
   11904.6  458226  52241.9  17068.4
   11906.4  458717  52188.1  17092.9
   11908.3  459829  52116.4  17107.6
   11910.1  460684  51864.6  17022.2
   11912.3  461923  51479.9  16865
   11914.2  463491  51157.3  16724.9
   11916.3  464541  50675.7  16601.8
   11918.8  466273  50276.1  16610.8
   11921  467726  50036.5  16658.9
   11923.4  469923  49962  16705.1
   11925.9  471383  49974.5  16740.3
   11928.4  473665  50222  16831.7
   11930.9  476260  50585.6  16902
   11933.7  479014  51149.1  17001.5
   11936.4  481791  51891.7  17143.1
   11939.2  483669  52572.4  17339.7
   11942.3  484989  53359.1  17663.4
   11945.1  489881  54471.8  18097.2
   11948.2  493875  55489.6  18500.1
   11951.3  497558  56334.3  18844
   11954.8  500470  56956.1  19143
   11957.9  504168  57475  19408.1
   11961.3  508089  57913.8  19571.3
   11964.7  512086  58255.8  19666.6
   11968.5  515776  58478.7  19828.9
   11971.9  520515  58791.7  20148.3
   11975.6  524426  58976.6  20418.8
   11979.4  528849  59216.6  20580.3
   11983.1  532694  59397.7  20668
   11987.2  535747  59515.8  20654.7
   11991.3  543348  60227.9  20777.5
   11995.3  547464  60694  20779.4
   11999.4  551797  61342.3  20929.3
   12003.5  557570  62314.4  21309.3
   12007.9  562763  63406.7  21782.5
   12012.3  566935  64481.9  22277.6
   12016.7  573741  65868.3  22893.9
   12021.1  578368  66910.6  23387.3
   12025.8  585381  68102  23962.7
   12030.5  590413  68849.4  24359.2
   12035.3  597005  69691.8  24768.7
   12040  602028  70303.2  25113.4
   12045  609049  71050.7  25478.1
   12050.1  613757  71507.2  25742.9
   12055.2  618891  72005.8  25904.8
   12060.2  627710  72956.4  26209.8
   12065.3  634109  73671  26555.8
   12070.7  639854  74343.6  26868.9
   12076.1  646282  75178.3  27108.1
   12081.5  653868  76246  27440.4
   12086.9  660391  77272.7  27801.7
   12092.6  668034  78507.5  28356.2
   12098.3  673358  79546.3  28944.7
   12104.1  680583  80829.1  29613.2
   12109.8  687459  82106  30263.9
   12115.9  695270  83499.9  31019.7
   12121.6  702700  84742.8  31704.5
   12127.7  708519  85773.8  32301.4
   12133.8  717686  87096.8  32908.3
   12140.2  725318  88184.8  33321.4
   12146.3  732130  89102.8  33660.5
   12152.8  740303  90158.9  34083.7
   12159.2  746178  90927  34425
   12165.6  753779  91934.1  34901.3
   12172.4  762412  93170.3  35509.8
   12178.9  771291  94455.5  36134.3
   12185.7  778890  95698.8  36696.9
   12192.5  786213  96955  37347.6
   12199.6  793220  98264.3  38046.3
   12206.4  802345  99829.6  38822.1
   12213.5  811414  101427  39675.1
   12220.7  818660  102810  40503.1
   12227.8  827858  104382  41372.1
   12235  836224  105859  42160.2
   12242.5  844031  107235  42915.5
   12250  851804  108576  43564.7
   12257.5  858572  109770  44075.1
   12265.1  867905  111269  44771.6
   12272.6  875564  112513  45419.1
   12280.5  884331  113908  46125.7
   12288.4  892352  115247  46866.4
   12296.3  898778  116414  47597.1
   12304.2  909978  118208  48579
   12312.1  917248  119573  49383.8
   12320.4  926116  121210  50338.9
   12328.7  934528  122815  51266.9
   12336.6  942674  124418  52207.1
   12345.2  951250  126105  53202.3
   12353.5  960927  127937  54205.6
   12362.2  967728  129398  55067
   12370.5  976304  131055  56020.5
   12379.2  985173  132790  57013
   12387.9  995185  134583  57963.6
   12396.9  1.0015e+06  135916  58777.3
   12405.6  1.00905e+06  137363  59632
   12414.7  1.01743e+06  138979  60589.9
   12423.8  1.02658e+06  140711  61643.8
   12432.8  1.03119e+06  141800  62444.8
   12441.9  1.04177e+06  143799  63676.9
   12451.4  1.05026e+06  145542  64828
   12460.5  1.05646e+06  146954  65800.3
   12470  1.06708e+06  149071  67109.6
   12479.5  1.07396e+06  150673  68189
   12489  1.08052e+06  152245  69229.5
   12498.9  1.08695e+06  153825  70273
   12508.4  1.09425e+06  155516  71368.6
   12518.3  1.10134e+06  157195  72483.3
   12528.2  1.10906e+06  158945  73653.1
   12538.1  1.11873e+06  161017  74941
   12548.1  1.12647e+06  162743  76108.9
   12558.4  1.13132e+06  164109  77128.9
   12568.7  1.13868e+06  165843  78360
   12578.7  1.14655e+06  167641  79607.1
   12589.1  1.15314e+06  169276  80827.4
   12599.4  1.16021e+06  170984  82117.8
   12610.2  1.16704e+06  172728  83401.1
   12620.6  1.17634e+06  174842  84900.6
   12631.3  1.18278e+06  176521  86200.1
   12642.1  1.18902e+06  178292  87519.8
   12652.9  1.1952e+06  180023  88808.5
   12663.8  1.20106e+06  181709  90092.3
   12674.6  1.20895e+06  183716  91545.2
   12685.8  1.2144e+06  185345  92864
   12696.7  1.22125e+06  187189  94266.1
   12708  1.22748e+06  188965  95675.2
   12719.3  1.2328e+06  190567  97038.4
   12730.6  1.24138e+06  192720  98648.6
   12741.9  1.24696e+06  194408  100076
   12753.6  1.25175e+06  196003  101475
   12764.9  1.25857e+06  197882  103047
   12776.7  1.26508e+06  199772  104627
   12788.4  1.27181e+06  201750  106240
   12800.2  1.27671e+06  203441  107749
   12812  1.28326e+06  205415  109361
   12824.2  1.28566e+06  206752  110708
   12836  1.29267e+06  208831  112402
   12848.2  1.30057e+06  211066  114218
   12860.5  1.30431e+06  212642  115722
   12872.4  1.30923e+06  214432  117345
   12885.1  1.31251e+06  215960  118852