Folder: XASDataLibrary/data (part 5)

File: as2s3_100K_scan3.xdi
# XDI/1.0
# Column.1: energy eV
# Column.2: i0
# Column.3: itrans
# Column.4: irefer
# Beamline.name: SSRL 2-3
# Beamline.notes: vert slits = 0.6mm
# Detector.I0: N2 15cm
# Detector.I1: Ar 30cm
# Detector.I2: Ar 15cm
# Element.edge: K
# Element.symbol: As
# Mono.d_spacing: 3.13550
# Mono.name: Si(111)
# Mono.notes: unfocused, detuned 75%, clockwise at E=12000eV
# Sample.formula: As2S3
# Sample.name: As2S3 arsenious sulfide (orpiment)
# Sample.prep: powder on tape (5 layers)
# Sample.reference: GaAs powder
# Sample.temperature: 100K
# Scan.start_time: 1997-04-19 22:41:20
# ///
#    Note: mono d_spacing is nominal!
#     exafs to K16, GaAs in IR
#     413  E XMU XMUR I0
#-------------
#   energy   i0   itrans  irefer
   11634.9  516546  92236.5  37653
   11654.9  510722  91877.5  37957
   11675.1  506275  91754.5  38358
   11695  500118  91323.5  38616
   11714.9  495455  91118.5  38985
   11735  491038  90940.5  39358
   11755.1  485997  90659.5  39690
   11775  480602  90285.5  39975
   11794.9  476031  90016.5  40300
   11814.9  470667  89529.5  40514
   11835  466047  89014.5  40660
   11845.4  463333  88323.5  40454
   11846.6  463169  88227.5  40418
   11847.5  463110  88155.5  40392
   11848.4  462691  88033.5  40325
   11849.6  462318  87854.5  40244
   11850.6  461334  87561.5  40091
   11851.5  461710  87555.5  40077
   11852.4  461648  87428.5  40015
   11853.6  462033  87283.5  39913
   11854.5  461260  86943.5  39718
   11855.4  461900  86845.5  39633
   11856.4  461516  86458.5  39407
   11857.6  461293  85889.5  39047
   11858.5  460683  85235.5  38661
   11859.4  460552  84549.5  38206
   11860.6  460481  83145.5  37313
   11861.6  460363  81653.5  36343
   11862.5  459228  79138.5  34770
   11863.4  458927  75656.5  32582
   11864.6  458479  66773.5  27333
   11865.5  458819  56409.5  21790
   11866.5  458779  44287.5  15892
   11867.4  458713  32300.5  10469
   11868.6  459080  24535.5  6895
   11869.5  458732  26010.5  6980
   11870.5  458052  31752.5  8503
   11871.4  457443  38178.5  10344
   11872.6  456909  45189.5  12504
   11873.5  456781  47278.5  13289
   11874.4  456660  47274.5  13528
   11875.4  456814  46405.5  13605
   11876.6  456762  45541.5  13826
   11877.5  456531  45479.5  14078
   11878.4  456568  45829.5  14384
   11879.4  456119  46177.5  14622
   11880.6  456343  46734.5  14927
   11881.5  455477  46964.5  15057
   11882.4  455066  47205.5  15150
   11883.7  454503  47481.5  15225
   11884.6  453948  47646.5  15268
   11885.5  453460  47775.5  15331
   11886.4  453586  47972.5  15412
   11887.6  453820  48262.5  15528
   11888.6  454050  48508.5  15613
   11889.5  453956  48750.5  15668
   11890.4  453506  48965.5  15730
   11891.6  453409  49320.5  15833
   11892.6  453193  49593.5  15930
   11893.5  452457  49773.5  16033
   11894.4  453106  50129.5  16222
   11895.6  452381  50401.2  16425.8
   11896.9  452284  50729.3  16616.8
   11898.4  451986  51065.3  16737
   11899.7  452681  51390.5  16797.2
   11901.2  452605  51591.6  16821.5
   11903  453134  51806.7  16892.9
   11904.6  453767  51889.9  16962.4
   11906.4  454672  51888.1  17006.9
   11908.3  455815  51797.4  17007.6
   11910.1  456488  51549.6  16929.3
   11912.3  457775  51170.9  16770
   11914.2  459497  50854.3  16636.9
   11916.3  460851  50424.7  16526.8
   11918.8  462237  49983.1  16523.8
   11921  464364  49819.5  16602.9
   11923.4  465842  49686  16618.1
   11925.9  468283  49809.5  16692.3
   11928.4  469733  49974  16739.7
   11930.9  472458  50344.5  16833
   11933.7  475278  50911.1  16930.5
   11936.4  477302  51565.7  17042.1
   11939.2  479691  52323.4  17259.7
   11942.3  480913  53081.1  17575.4
   11945.1  486027  54223.8  18019.2
   11948.2  489705  55191.6  18410.1
   11951.3  492695  55955.3  18722
   11954.8  496701  56696.1  19057
   11957.9  499996  57168  19308.1
   11961.3  503565  57563.8  19456.3
   11964.7  507935  57946.8  19566.6
   11968.5  511642  58182.7  19737.9
   11971.9  515984  58448.6  20046.3
   11975.6  519732  58619.6  20292.8
   11979.4  524870  58929.6  20482.3
   11983.1  527958  59048.7  20548
   11987.2  530633  59129.8  20525.7
   11991.3  538303  59865.9  20658.5
   11995.3  542702  60359.1  20673.4
   11999.4  547787  61079.3  20844.3
   12003.5  552837  61972.5  21199.4
   12007.9  557942  63044.7  21677.5
   12012.3  561596  64057.9  22137.6
   12016.7  569126  65514.2  22770.9
   12021.1  573957  66579.6  23276.2
   12025.8  580217  67687.9  23823.7
   12030.5  585810  68515.4  24235.2
   12035.3  591694  69262.8  24613.7
   12040  596956  69897.2  24965.4
   12045  603322  70577.7  25305.1
   12050.1  609146  71169.3  25624.9
   12055.2  613190  71552.8  25745.8
   12060.2  621576  72444.4  26030.8
   12065.3  628779  73245.9  26406.8
   12070.7  634901  73964.6  26732.9
   12076.1  640947  74749.3  26963.1
   12081.5  647500  75699  27243.4
   12086.9  653941  76726.7  27607.7
   12092.6  662443  78038.5  28189.2
   12098.3  668176  79130.3  28802.7
   12104.1  675144  80396.2  29444.3
   12109.8  681848  81663  30103.9
   12115.9  690213  83104.9  30869.6
   12121.6  697306  84327.8  31551.5
   12127.7  703490  85367.8  32132.4
   12133.8  710873  86500.8  32681.3
   12140.2  719383  87687.8  33138.4
   12146.3  725507  88517.8  33447.5
   12152.8  733183  89503.9  33833.7
   12159.2  740235  90418  34236
   12165.6  747620  91398.1  34707.3
   12172.4  755936  92577.3  35283.8
   12178.9  764257  93815.5  35880.3
   12185.7  772189  95076.7  36455.9
   12192.5  780363  96457  37149.6
   12199.6  787108  97734.3  37837.3
   12206.4  795058  99155.7  38555.2
   12213.5  803840  100718  39387
   12220.7  812625  102276  40281
   12227.8  819643  103594  41052.1
   12235  828292  105076  41840.2
   12242.5  835269  106350  42551.4
   12250  844256  107835  43265.7
   12257.5  852999  109282  43879.1
   12265.1  860414  110545  44490.5
   12272.6  868536  111857  45159.1
   12280.5  874504  112907  45729.7
   12288.4  885127  114568  46587.4
   12296.3  893786  116000  47405.1
   12304.2  902453  117499  48264
   12312.1  910477  118939  49133.9
   12320.4  917730  120356  49962.8
   12328.7  925283  121851  50840
   12336.6  933460  123446  51800.1
   12345.2  942101  125154  52782.3
   12353.5  950906  126872  53736.6
   12362.2  958598  128448  54652
   12370.5  968515  130277  55681.5
   12379.2  976613  131890  56635
   12387.9  983483  133290  57412.6
   12396.9  993547  135121  58416.3
   12405.6  1.00185e+06  136666  59323
   12414.7  1.00882e+06  138089  60190.9
   12423.8  1.01641e+06  139607  61150.8
   12432.8  1.02416e+06  141152  62131.8
   12441.9  1.03175e+06  142727  63167.9
   12451.4  1.04005e+06  144413  64295
   12460.5  1.0482e+06  146119  65392.3
   12470  1.05695e+06  147957  66583.6
   12479.5  1.066e+06  149863  67790.9
   12489  1.07303e+06  151502  68883.4
   12498.9  1.08004e+06  153174  69975
   12508.4  1.08728e+06  154827  71022.7
   12518.3  1.09668e+06  156836  72280.3
   12528.2  1.10431e+06  158567  73429.1
   12538.1  1.11057e+06  160106  74502.9
   12548.1  1.11805e+06  161791  75637.9
   12558.4  1.12494e+06  163462  76805.9
   12568.7  1.13405e+06  165425  78136
   12578.7  1.14372e+06  167467  79494.1
   12589.1  1.15047e+06  169150  80734.4
   12599.4  1.15787e+06  170903  82044.7
   12610.2  1.16326e+06  172440  83258.1
   12620.6  1.17053e+06  174237  84592.6
   12631.3  1.17673e+06  175950  85882.2
   12642.1  1.18474e+06  177958  87339.8
   12652.9  1.19231e+06  179885  88730.5
   12663.8  1.19656e+06  181315  89884.3
   12674.6  1.20434e+06  183303  91343.2
   12685.8  1.21028e+06  184991  92656
   12696.7  1.21822e+06  187023  94143.1
   12708  1.2241e+06  188737  95547.2
   12719.3  1.22771e+06  190081  96741.4
   12730.6  1.23462e+06  192004  98230.6
   12741.9  1.24206e+06  193955  99772
   12753.6  1.24605e+06  195440  101153
   12764.9  1.25352e+06  197398  102734
   12776.7  1.25732e+06  198890  104114
   12788.4  1.26311e+06  200685  105631
   12800.2  1.2682e+06  202403  107131
   12812  1.27543e+06  204486  108849
   12824.2  1.28033e+06  206211  110365
   12836  1.28485e+06  207888  111839
   12848.2  1.29128e+06  209905  113547
   12860.5  1.29812e+06  211968  115297
   12872.4  1.30075e+06  213353  116708
   12885.1  1.30438e+06  214976  118275

File: as2s3_roomt_scan1.xdi
# XDI/1.0
# Column.1: energy eV
# Column.2: i0
# Column.3: itrans
# Column.4: irefer
# Beamline.name: SSRL 2-3
# Beamline.notes: vert slits = 0.6mm
# Detector.I0: N2 15cm
# Detector.I1: Ar 30cm
# Detector.I2: Ar 15cm
# Element.edge: K
# Element.symbol: As
# Mono.d_spacing: 3.13550
# Mono.name: Si(111)
# Mono.notes: unfocused, detuned 75%, clockwise at E=12000eV
# Sample.formula: As2S3
# Sample.name: As2S3 arsenious sulfide (orpiment)
# Sample.prep: powder on tape (5 layers)
# Sample.reference: GaAs powder
# Sample.temperature: room temp
# Scan.start_time: 1997-04-20 10:51:20
# ///
#    Note: mono d_spacing is nominal!
#     exafs to K16, GaAs in IR
#     413  E XMU XMUR I0
#-------------
#   energy   i0   itrans  irefer
   11634.9  641230  111626  45428
   11654.9  635343  111426  45883
   11675.1  628660  111094  46297
   11695  621510  110661  46649
   11714.9  616046  110516  47133
   11735  611138  110415  47636
   11755.1  604962  110075  48024
   11775  598414  109653  48385
   11794.9  593258  109438  48839
   11814.9  587128  108966  49152
   11835  581602  108296  49318
   11845.4  577943  107423  49080
   11846.6  577668  107320  49044
   11847.5  577647  107238  48997
   11848.4  577104  107072  48918
   11849.6  576374  106819  48811
   11850.6  575802  106612  48718
   11851.5  575430  106415  48603
   11852.4  575255  106235  48517
   11853.6  575039  105938  48346
   11854.5  575635  105816  48272
   11855.4  575139  105468  48075
   11856.4  575221  105149  47885
   11857.6  574457  104434  47466
   11858.5  574934  103962  47168
   11859.4  573951  103115  46676
   11860.6  574318  101808  45850
   11861.6  573611  100312  44960
   11862.5  573185  98233.5  43685
   11863.4  572551  95327.5  41922
   11864.6  572302  88200.5  37679
   11865.5  571602  79218.5  32634
   11866.5  572423  66876.5  26208
   11867.4  572668  51221.5  18699
   11868.6  573889  32461.5  10342
   11869.5  573901  25980.5  7408
   11870.5  573382  26925.5  7213
   11871.4  572291  32888.5  8748
   11872.6  571340  43871.5  11865
   11873.5  569900  49662.5  13630
   11874.4  570036  52364.5  14591
   11875.4  569756  52577.5  14918
   11876.6  570527  51288.5  15038
   11877.5  569738  50588.5  15203
   11878.4  570026  50565.5  15532
   11879.4  568981  50861.5  15844
   11880.6  569143  51575.5  16272
   11881.5  569105  52029.5  16527
   11882.4  568310  52337.5  16694
   11883.7  567790  52743.5  16846
   11884.6  567024  52972.5  16905
   11885.5  566350  53162.5  16966
   11886.4  566319  53387.5  17052
   11887.6  565800  53667.5  17168
   11888.6  566652  54001.5  17294
   11889.5  566367  54275.5  17385
   11890.4  565922  54533.5  17456
   11891.6  565765  54966.5  17573
   11892.6  565951  55321.5  17677
   11893.5  565094  55568.5  17768
   11894.4  565122  55911.5  17920
   11895.6  564677  56289.3  18152.8
   11896.9  564664  56721.3  18424.8
   11898.4  564447  57194.3  18670
   11899.7  564732  57580.4  18784.2
   11901.2  565079  57955.6  18843.5
   11903  566043  58308.7  18935.9
   11904.6  566381  58444.9  18992.4
   11906.4  567495  58509.1  19064.9
   11908.3  568481  58434.4  19073.6
   11910.1  569989  58247.7  19044.3
   11912.3  571168  57795  18873
   11914.2  573607  57458.3  18716.9
   11916.3  575083  56899.7  18527.8
   11918.8  577482  56348.1  18462.8
   11921  579475  55969.5  18491.9
   11923.4  582142  55755  18536.1
   11925.9  584152  55689.5  18557.3
   11928.4  587196  55893  18652.7
   11930.9  590289  56255.5  18750
   11933.7  593041  56777.2  18839.5
   11936.4  597024  57633.8  18991.1
   11939.2  599630  58466.4  19196.7
   11942.3  601296  59380.1  19545.4
   11945.1  605277  60433.8  19967.2
   11948.2  611749  61810.5  20497
   11951.3  615789  62806.3  20896
   11954.8  620446  63696.2  21277
   11957.9  625127  64349  21609.1
   11961.3  629481  64835.9  21812.3
   11964.7  633852  65160.7  21898.5
   11968.5  639096  65459.7  22042.9
   11971.9  644554  65739.6  22346.3
   11975.6  648790  65827.6  22640.8
   11979.4  655559  66191.7  22880.4
   11983.1  660448  66376.7  22991
   11987.2  664000  66481.8  22993.7
   11991.3  671908  67122.9  23079.5
   11995.3  678307  67765.1  23134.4
   11999.4  684604  68575.2  23296.3
   12003.5  690697  69547.4  23651.3
   12007.9  696270  70689.7  24153.5
   12012.3  701324  71853.9  24676.6
   12016.7  710290  73464.2  25392.9
   12021.1  717400  74792.6  25992.2
   12025.8  724983  76046  26611.7
   12030.5  732687  77078.3  27131.1
   12035.3  740176  77989.8  27572.7
   12040  746966  78730.3  27963.4
   12045  754825  79528.7  28362.1
   12050.1  761341  80118.2  28706.9
   12055.2  767615  80658.8  28914.8
   12060.2  776875  81543.4  29169.8
   12065.3  786545  82505  29585.8
   12070.7  793693  83251.6  29961.9
   12076.1  803420  84368.3  30316.1
   12081.5  809806  85223  30550.4
   12086.9  819662  86537.8  30998.8
   12092.6  828609  87899.5  31574.2
   12098.3  836349  89185.3  32269.7
   12104.1  845251  90655.2  33038.3
   12109.8  852893  91988  33720.9
   12115.9  863057  93604.9  34584.7
   12121.6  872335  95030.9  35358.5
   12127.7  880926  96327.8  36077.4
   12133.8  891443  97733.7  36754.3
   12140.2  900760  98957.8  37254.4
   12146.3  910758  100179  37692.5
   12152.8  918492  101149  38079.7
   12159.2  929450  102447  38615
   12165.6  937831  103493  39116.4
   12172.4  949624  104979  39836.8
   12178.9  959440  106339  40502.3
   12185.7  969700  107822  41177.9
   12192.5  978496  109207  41863.6
   12199.6  987687  110708  42662.3
   12206.4  998303  112422  43524.1
   12213.5  1.00917e+06  114183  44443.1
   12220.7  1.0189e+06  115818  45396.1
   12227.8  1.02949e+06  117528  46379.1
   12235  1.03938e+06  119152  47230.2
   12242.5  1.05012e+06  120842  48127.4
   12250  1.06083e+06  122479  48944.7
   12257.5  1.06921e+06  123849  49522.1
   12265.1  1.0812e+06  125600  50314.5
   12272.6  1.0906e+06  127047  51065.1
   12280.5  1.10056e+06  128532  51817.7
   12288.4  1.1135e+06  130416  52784.3
   12296.3  1.12462e+06  132120  53751.1
   12304.2  1.13466e+06  133738  54714.9
   12312.1  1.14555e+06  135491  55691.9
   12320.4  1.1547e+06  137130  56674.9
   12328.7  1.1656e+06  139017  57753.9
   12336.6  1.17676e+06  140936  58868.1
   12345.2  1.18752e+06  142879  60007.3
   12353.5  1.19882e+06  144878  61105.6
   12362.2  1.20873e+06  146742  62167
   12370.5  1.22021e+06  148748  63288.4
   12379.2  1.22955e+06  150493  64327
   12387.9  1.23924e+06  152247  65297.6
   12396.9  1.24892e+06  154005  66310.3
   12405.6  1.26061e+06  155998  67409.1
   12414.7  1.27087e+06  157805  68468.9
   12423.8  1.2815e+06  159722  69630.8
   12432.8  1.29198e+06  161631  70814.8
   12441.9  1.30341e+06  163667  72101.9
   12451.4  1.31226e+06  165458  73320.1
   12460.5  1.32244e+06  167444  74591.3
   12470  1.33253e+06  169440  75898.6
   12479.5  1.34323e+06  171561  77269
   12489  1.35548e+06  173878  78682.4
   12498.9  1.36325e+06  175672  79852
   12508.4  1.3744e+06  177900  81234.6
   12518.3  1.38539e+06  180129  82627.3
   12528.2  1.39494e+06  182127  83964.1
   12538.1  1.4024e+06  183878  85167.9
   12548.1  1.41635e+06  186480  86794.9
   12558.4  1.42368e+06  188213  88024.9
   12568.7  1.43224e+06  190131  89387
   12578.7  1.44371e+06  192463  90960.1
   12589.1  1.45404e+06  194631  92491.4
   12599.4  1.46383e+06  196771  94030.7
   12610.2  1.47028e+06  198531  95450.1
   12620.6  1.48036e+06  200750  97051.6
   12631.3  1.49163e+06  203187  98763.1
   12642.1  1.49849e+06  205079  100203
   12652.9  1.5079e+06  207321  101830
   12663.8  1.51774e+06  209628  103475
   12674.6  1.52587e+06  211682  105016
   12685.8  1.53352e+06  213728  106547
   12696.7  1.54356e+06  216084  108287
   12708  1.55052e+06  218059  109849
   12719.3  1.56125e+06  220502  111704
   12730.6  1.56946e+06  222690  113421
   12741.9  1.57681e+06  224683  115085
   12753.6  1.58477e+06  226865  116875
   12764.9  1.59186e+06  228889  118570
   12776.7  1.60023e+06  231182  120468
   12788.4  1.61038e+06  233764  122501
   12800.2  1.61698e+06  235809  124281
   12812  1.6248e+06  238064  126150
   12824.2  1.62754e+06  239588  127655
   12836  1.63551e+06  241944  129600
   12848.2  1.64656e+06  244693  131795
   12860.5  1.65005e+06  246376  133437
   12872.4  1.65587e+06  248394  135258
   12885.1  1.66196e+06  250495  137205

File: ass_10K_scan3.xdi
# XDI/1.0
# Column.1: energy eV
# Column.2: i0
# Column.3: itrans
# Column.4: irefer
# Beamline.name: SSRL 2-3
# Beamline.notes: vert slits = 0.6mm
# Detector.I0: N2 15cm
# Detector.I1: Ar 30cm
# Detector.I2: Ar 15cm
# Element.edge: K
# Element.symbol: As
# Mono.d_spacing: 3.13550
# Mono.name: Si(111)
# Mono.notes: unfocused, detuned 75%, clockwise at E=12000eV
# Sample.formula: AsS
# Sample.name: AsS (realgar)
# Sample.prep: powder on tape (5 layers)
# Sample.reference: GaAs powder
# Sample.temperature: 10K
# Scan.start_time: 1997-04-19 17:37:58
# ///
#    Note: mono d_spacing is nominal!
#     exafs to K16, GaAs in IR
#     413  E XMU XMUR I0
#-------------
#   energy   i0   itrans  irefer
   11634.9  540319  71348.5  29315
   11654.9  535418  71334.5  29651
   11675.1  530754  71345.5  30013
   11695  523989  71040.5  30236
   11714.9  518180  70890.5  30521
   11735  514044  70908.5  30879
   11755.1  508192  70696.5  31136
   11775  502913  70518.5  31416
   11794.9  498293  70397.5  31717
   11814.9  492864  70059.5  31897
   11835  488525  69618.5  32010
   11845.4  485901  68890.5  31769
   11846.6  485455  68741.5  31710
   11847.5  486351  68787.5  31722
   11848.4  485561  68592.5  31638
   11849.6  485412  68426.5  31557
   11850.6  484938  68246.5  31462
   11851.5  485198  68146.5  31405
   11852.4  483877  67781.5  31234
   11853.6  484768  67622.5  31155
   11854.5  484469  67337.5  30995
   11855.4  485226  67143.5  30891
   11856.4  484515  66660.5  30625
   11857.6  485047  66086.5  30301
   11858.5  483056  65214.5  29849
   11859.4  483598  64532.5  29459
   11860.6  482123  62883.5  28562
   11861.6  482183  61436.5  27752
   11862.5  481131  59146.5  26517
   11863.4  480569  56209.5  24908
   11864.6  478821  49244.5  21209
   11865.5  479120  41728.5  17384
   11866.5  478433  32689.5  13053
   11867.4  479323  22300.5  8358
   11868.6  478910  11848.5  3911
   11869.5  479307  8628.5  2508
   11870.5  477994  9242.5  2495
   11871.4  478081  12282.5  3296
   11872.6  477314  17886.5  4889
   11873.5  476630  20869.5  5790.01
   11874.4  476321  22126.5  6228
   11875.4  476579  22056.5  6326
   11876.6  476678  21142.5  6268
   11877.5  476470  20796.5  6319
   11878.4  476806  20883.5  6482
   11879.4  476369  21149.5  6644
   11880.6  475916  21611.5  6877
   11881.5  475773  21874.5  7000
   11882.4  475632  22076.5  7093.01
   11883.7  475666  22352.5  7194
   11884.6  474363  22477.5  7223
   11885.5  474078  22619.5  7271
   11886.4  473691  22759.5  7322
   11887.6  474260  22989.5  7410
   11888.6  474507  23157.5  7474.01
   11889.5  474344  23338.5  7529
   11890.4  474795  23554.5  7593
   11891.6  473926  23809.5  7669
   11892.6  474174  24046.5  7742
   11893.5  473515  24229.5  7812
   11894.4  473398  24438.5  7899
   11895.6  473124  24712.3  8044.77
   11896.9  473579  24990.3  8187.84
   11898.4  473116  25260.4  8305.99
   11899.7  473594  25472.4  8372.23
   11901.2  473512  25644.6  8405.54
   11903  474290  25809.7  8450.93
   11904.6  474901  25865.9  8478.4
   11906.4  475755  25873.1  8496.94
   11908.3  476608  25804.4  8499.56
   11910.1  478239  25698.7  8467.26
   11912.3  479927  25447.9  8373.03
   11914.2  481420  25184.3  8268.89
   11916.3  482972  24841.7  8161.82
   11918.8  484454  24448.1  8087.83
   11921  487232  24230.5  8081.92
   11923.4  489078  24018  8049.08
   11925.9  491106  23920.5  8038.32
   11928.4  493010  23925  8040.65
   11930.9  496178  24057.6  8078.04
   11933.7  498664  24301.1  8116.52
   11936.4  500710  24679.8  8194.07
   11939.2  503984  25214.4  8342.7
   11942.3  504946  25773.1  8552.41
   11945.1  508904  26442.8  8802.2
   11948.2  514263  27205.6  9092.07
   11951.3  516897  27722.3  9298.01
   11954.8  521107  28206.1  9499.03
   11957.9  524500  28498  9652.13
   11961.3  528023  28682.8  9727.3
   11964.7  531817  28796.8  9750.55
   11968.5  536694  28889.7  9816.88
   11971.9  539954  28887.6  9918.3
   11975.6  543643  28867.6  10013.8
   11979.4  548403  28908.7  10082.3
   11983.1  552190  28908.7  10094
   11987.2  554949  28854.8  10050.7
   11991.3  561670  29047.9  10062.5
   11995.3  566786  29250.1  10056.4
   11999.4  570805  29506.2  10098.3
   12003.5  576910  30014.5  10291.4
   12007.9  582139  30635.7  10557.5
   12012.3  584632  31223  10814.6
   12016.7  592596  32152.3  11204.9
   12021.1  598158  32903.6  11524.2
   12025.8  603390  33543  11840.7
   12030.5  609905  34049.4  12076.2
   12035.3  615976  34451.8  12278.7
   12040  621379  34734.2  12438.4
   12045  627211  34948.7  12566.1
   12050.1  634378  35210.2  12718.9
   12055.2  637764  35263.8  12733.8
   12060.2  646711  35649.4  12846.8
   12065.3  654334  36008  13018.8
   12070.7  660817  36357.6  13183.9
   12076.1  668366  36835.3  13331.1
   12081.5  675616  37370  13492.4
   12086.9  681676  37899.8  13678.7
   12092.6  689068  38568.5  13966.2
   12098.3  694564  39144.3  14273.7
   12104.1  702391  39885.1  14649.2
   12109.8  709197  40578  14983.9
   12115.9  717428  41367.9  15390.6
   12121.6  725560  42091.8  15778.5
   12127.7  731681  42671.8  16100.4
   12133.8  740379  43351.8  16414.3
   12140.2  747094  43876.8  16638.4
   12146.3  755236  44425.8  16829.5
   12152.8  764977  45009.9  17054.7
   12159.2  773123  45498  17265
   12165.6  780257  45933.2  17480.4
   12172.4  788642  46507.3  17770.8
   12178.9  796624  47089.5  18062.3
   12185.7  804180  47747.7  18368.9
   12192.5  812803  48521  18745.6
   12199.6  821239  49345.3  19159.3
   12206.4  830247  50216.6  19584.1
   12213.5  837723  51006  20003.1
   12220.7  845301  51787.4  20444
   12227.8  854938  52650.8  20930.1
   12235  861979  53343.2  21299.2
   12242.5  869942  54090.7  21697.4
   12250  875728  54689.2  22007.7
   12257.5  885404  55524.8  22356.1
   12265.1  894836  56335.4  22731.6
   12272.6  901994  56990.9  23071.1
   12280.5  911523  57808.6  23478.7
   12288.4  919236  58507.2  23854.3
   12296.3  928652  59317  24313.1
   12304.2  937365  60101.7  24763.9
   12312.1  943711  60758.5  25153.9
   12320.4  954381  61747.2  25699.9
   12328.7  962490  62600  26192.9
   12336.6  971707  63542.9  26738.1
   12345.2  980074  64486.8  27283.3
   12353.5  988116  65411.7  27792.6
   12362.2  997518  66453.6  28360
   12370.5  1.00572e+06  67385.6  28888.4
   12379.2  1.01484e+06  68371.6  29439
   12387.9  1.02353e+06  69294.7  29936.6
   12396.9  1.03216e+06  70208.7  30450.3
   12405.6  1.04114e+06  71119.9  30974
   12414.7  1.04682e+06  71808  31406.9
   12423.8  1.05602e+06  72761.1  31975.8
   12432.8  1.06584e+06  73768.3  32575.8
   12441.9  1.07173e+06  74522.6  33096.9
   12451.4  1.07817e+06  75357.8  33664
   12460.5  1.0855e+06  76268.1  34252.3
   12470  1.09285e+06  77224.4  34860.6
   12479.5  1.10118e+06  78235.8  35518
   12489  1.11026e+06  79324.1  36198.4
   12498.9  1.11884e+06  80405.5  36846
   12508.4  1.12697e+06  81455  37492.6
   12518.3  1.1352e+06  82532.5  38167.3
   12528.2  1.14022e+06  83375  38742.1
   12538.1  1.15161e+06  84678.6  39526
   12548.1  1.15878e+06  85649.1  40166.9
   12558.4  1.16736e+06  86761.7  40897.9
   12568.7  1.17475e+06  87743.4  41580
   12578.7  1.1841e+06  88883  42344.2
   12589.1  1.19091e+06  89843.6  43021.4
   12599.4  1.19764e+06  90822.4  43739.7
   12610.2  1.2059e+06  91928.2  44541.1
   12620.6  1.21452e+06  93110.9  45358.6
   12631.3  1.22692e+06  94616.7  46345.1
   12642.1  1.23448e+06  95774.6  47160.8
   12652.9  1.24498e+06  97196.5  48102.5
   12663.8  1.25183e+06  98281.3  48891.3
   12674.6  1.25969e+06  99517.3  49761.2
   12685.8  1.26328e+06  100409  50458.1
   12696.7  1.27311e+06  101747  51399.1
   12708  1.28034e+06  102908  52275.2
   12719.3  1.28336e+06  103727  52969.4
   12730.6  1.29063e+06  104902  53875.6
   12741.9  1.29379e+06  105766  54610.9
   12753.6  1.30049e+06  106933  55528.3
   12764.9  1.30477e+06  107869  56344.9
   12776.7  1.31217e+06  109104  57316.4
   12788.4  1.31816e+06  110246  58221.1
   12800.2  1.32218e+06  111229  59072.8
   12812  1.32544e+06  112194  59890.6
   12824.2  1.32676e+06  112995  60657.5
   12836  1.33267e+06  114175  61622.4
   12848.2  1.33559e+06  115135  62484.5
   12860.5  1.33691e+06  115958  63283.6
   12872.4  1.34253e+06  117106  64254.7
   12885.1  1.34476e+06  118018  65128