Folder: XASDataLibrary/data (part 3)

File: as2o5_10K_scan1.xdi
# XDI/1.0
# Column.1: energy eV
# Column.2: i0
# Column.3: itrans
# Column.4: irefer
# Beamline.name: SSRL 2-3
# Beamline.notes: vert slits = 0.6mm
# Detector.I0: N2 15cm
# Detector.I1: Ar 30cm
# Detector.I2: Ar 15cm
# Element.edge: K
# Element.symbol: As
# Mono.d_spacing: 3.13550
# Mono.name: Si(111)
# Mono.notes: unfocused, detuned 75%, clockwise at E=12000eV
# Sample.formula: As2O5
# Sample.name: As2O5 arsenic (V) oxide
# Sample.prep: powder on tape (5 layers)
# Sample.reference: GaAs powder
# Sample.temperature: 10K
# Scan.start_time: 1997-04-19 18:40:39
# ///
#    Note: mono d_spacing is nominal!
#     exafs to K16, GaAs in IR
#     413  E XMU XMUR I0
#-------------
#   energy   i0   itrans  irefer
   11634.9  540374  96003.5  39417
   11654.9  535092  95760.5  39783
   11675.1  530232  95584.5  40185
   11695  524671  95269.5  40509
   11714.9  518899  94903.5  40815
   11735  513383  94562.5  41140
   11755.1  508808  94391.5  41545
   11775  502989  93954.5  41824
   11794.9  498264  93656.5  42168
   11814.9  493540  93274.5  42449
   11835  488232  92512.5  42503
   11845.4  486043  91923.5  42345
   11846.6  485701  91764.5  42282
   11847.5  486343  91860.5  42326
   11848.4  485587  91669.5  42240
   11849.6  485546  91546.5  42180
   11850.6  484299  91251.5  42043
   11851.5  483974  91106.5  41961
   11852.4  483599  90930.5  41858
   11853.6  484415  90928.5  41832
   11854.5  484595  90801.5  41757
   11855.4  484037  90547.5  41603
   11856.4  483143  90186.5  41397
   11857.6  483236  89907.5  41168
   11858.5  483006  89590.5  40951
   11859.4  482731  89212.5  40669
   11860.6  482362  88597.5  40150
   11861.6  481681  87991.5  39634
   11862.5  482378  87492.5  39022
   11863.4  480918  86531.5  38033
   11864.6  480030  84999.5  35839
   11865.5  479178  83452.5  33171
   11866.5  479808  81822.5  29972
   11867.4  479435  79293.5  26158
   11868.6  479847  74168.5  21510
   11869.5  479157  68448.5  18794
   11870.5  479434  60336.5  16189
   11871.4  478285  50073.5  13410
   11872.6  478139  32834.5  8919
   11873.5  477399  21695.5  5981
   11874.4  478058  14640.5  4100
   11875.4  477294  11345.5  3251
   11876.6  478249  12801.5  3826
   11877.5  476865  15810.5  4839
   11878.4  477296  19645.5  6113
   11879.4  476209  23228.5  7311
   11880.6  476216  27831.5  8866
   11881.5  475026  30090.5  9643
   11882.4  475861  31607.5  10161
   11883.7  474950  32573.5  10480
   11884.6  474939  32827.5  10554
   11885.5  473967  32890.5  10571
   11886.4  473571  32969.5  10618
   11887.6  473316  33181.5  10700
   11888.6  473835  33438.5  10792
   11889.5  473725  33763.5  10895
   11890.4  474081  34226.5  11039
   11891.6  473316  34986.5  11268
   11892.6  473459  35638.5  11480
   11893.5  473061  36198.5  11677
   11894.4  472378  36710.5  11880
   11895.6  472555  37404.2  12194.8
   11896.9  472034  37901.3  12438.8
   11898.4  472196  38432.4  12647
   11899.7  471990  38926.4  12791.2
   11901.2  472910  40032.6  13114.5
   11903  472759  41523.7  13591.9
   11904.6  474026  42814.9  14037.4
   11906.4  474063  44105.1  14500.9
   11908.3  475697  45399.4  14964.5
   11910.1  475902  46335.7  15282.3
   11912.3  477671  46944  15465
   11914.2  478910  46798.3  15377.9
   11916.3  480747  46133.7  15165.8
   11918.8  481522  44825.1  14845.8
   11921  483873  43677.5  14587.9
   11923.4  485913  42605  14288.1
   11925.9  488093  41944.5  14111.3
   11928.4  490656  41494  13962.7
   11930.9  492881  40946.6  13752.1
   11933.7  495977  40291.2  13460.5
   11936.4  498997  39795.8  13205.1
   11939.2  501110  39571.4  13096.7
   11942.3  502737  39453.1  13095.4
   11945.1  507502  39774.8  13260.2
   11948.2  512107  40133.5  13420.1
   11951.3  515484  40516.3  13597
   11954.8  518260  41024.1  13820
   11957.9  522621  41723  14132.1
   11961.3  527017  42445.9  14393.3
   11964.7  530439  43025.7  14574.5
   11968.5  534468  43602.7  14821.9
   11971.9  539667  44413.6  15251.3
   11975.6  543003  45386.6  15757.8
   11979.4  547358  46561.7  16238.3
   11983.1  551104  47549.7  16602
   11987.2  554420  48302.8  16832.7
   11991.3  562177  49242.9  17057.5
   11995.3  566739  49880.1  17145.4
   11999.4  571081  50444.3  17271.3
   12003.5  576181  50963.4  17481.4
   12007.9  580839  51370.7  17712.5
   12012.3  585342  51701  17913.6
   12016.7  592790  52192.2  18195.9
   12021.1  598470  52578.6  18429.2
   12025.8  604306  52892  18672.7
   12030.5  610676  53063.3  18833.2
   12035.3  616639  53177.8  18958.7
   12040  622527  53417.3  19134.4
   12045  629439  54111.7  19456.1
   12050.1  636068  55032.3  19875.9
   12055.2  639752  55632.8  20090.8
   12060.2  647703  56504.4  20372.8
   12065.3  655880  57402  20743.8
   12070.7  661557  58093.6  21068.9
   12076.1  669104  59037.3  21366.1
   12081.5  675056  59809  21604.4
   12086.9  682361  60656.8  21897.7
   12092.6  690407  61633.5  22317.2
   12098.3  696629  62488.3  22793.7
   12104.1  705407  63589.1  23360.2
   12109.8  711485  64444  23814.9
   12115.9  719085  65425.9  24372.6
   12121.6  727281  66404.8  24904.5
   12127.7  734356  67386.7  25427.3
   12133.8  742839  68505.8  25944.3
   12140.2  751802  69565.8  26364.4
   12146.3  758471  70383.8  26674.5
   12152.8  765476  71084.9  26954.7
   12159.2  774039  71817  27266
   12165.6  782169  72592.2  27628.4
   12172.4  789282  73350.3  28022.8
   12178.9  798356  74544.5  28591.3
   12185.7  806856  75727.8  29129.9
   12192.5  814608  76617  29593.6
   12199.6  820739  77339.3  30034.3
   12206.4  828742  78447.6  30599.1
   12213.5  837627  79838  31316.1
   12220.7  846071  80877.4  31938
   12227.8  855790  81879.8  32542.1
   12235  864030  83054.2  33182.2
   12242.5  871377  84140.8  33771.5
   12250  880430  85446.3  34376.7
   12257.5  888842  86495.7  34833.1
   12265.1  897552  87689.3  35384.5
   12272.6  905276  88836.9  35969.1
   12280.5  914664  90184.6  36631.7
   12288.4  923219  91585.2  37353.3
   12296.3  931047  92811  38045.1
   12304.2  940566  94167.6  38817.9
   12312.1  946285  95008.4  39348.8
   12320.4  957931  96390.3  40133.9
   12328.7  965381  97521  40830.9
   12336.6  973381  98669.9  41526.1
   12345.2  983446  100121  42372.3
   12353.5  992205  101367  43091.6
   12362.2  998326  102456  43731
   12370.5  1.00814e+06  103837  44525.4
   12379.2  1.01794e+06  105372  45384
   12387.9  1.02595e+06  106527  46031.6
   12396.9  1.03392e+06  107723  46725.3
   12405.6  1.04317e+06  109097  47504.1
   12414.7  1.05095e+06  110429  48289.9
   12423.8  1.05997e+06  112060  49228.8
   12432.8  1.06613e+06  113293  50037.8
   12441.9  1.07483e+06  114604  50898.9
   12451.4  1.08104e+06  115641  51658.1
   12460.5  1.08985e+06  117011  52546.3
   12470  1.09893e+06  118547  53529.6
   12479.5  1.10777e+06  120141  54526
   12489  1.11451e+06  121497  55405.5
   12498.9  1.12119e+06  122911  56290
   12508.4  1.13087e+06  124516  57295.6
   12518.3  1.13753e+06  125819  58163.3
   12528.2  1.14467e+06  127078  59029.1
   12538.1  1.15437e+06  128698  60065
   12548.1  1.16267e+06  130180  61053.9
   12558.4  1.17051e+06  131687  62063.9
   12568.7  1.18006e+06  133431  63217
   12578.7  1.18886e+06  135008  64277.2
   12589.1  1.19516e+06  136362  65287.4
   12599.4  1.20563e+06  138079  66449.7
   12610.2  1.21489e+06  139694  67644.1
   12620.6  1.2237e+06  141335  68829.6
   12631.3  1.23012e+06  142869  69959.2
   12642.1  1.23342e+06  144114  70941.8
   12652.9  1.23689e+06  145162  71819.5
   12663.8  1.24332e+06  146512  72842.3
   12674.6  1.2487e+06  147783  73844.2
   12685.8  1.25476e+06  149207  74966.1
   12696.7  1.26253e+06  150871  76201.1
   12708  1.2679e+06  152262  77310.2
   12719.3  1.27802e+06  154305  78781.4
   12730.6  1.2872e+06  156222  80204.6
   12741.9  1.2931e+06  157747  81441
   12753.6  1.29776e+06  159155  82619.4
   12764.9  1.30414e+06  160685  83874.9
   12776.7  1.31421e+06  162639  85369.5
   12788.4  1.31753e+06  163881  86508
   12800.2  1.3232e+06  165371  87768.8
   12812  1.32978e+06  167015  89154.6
   12824.2  1.32937e+06  167843  90102.5
   12836  1.33837e+06  169784  91601.4
   12848.2  1.34593e+06  171511  93057.5
   12860.5  1.35039e+06  172913  94325.6
   12872.4  1.35562e+06  174492  95720.7
   12885.1  1.35961e+06  175974  97107

File: as2o5_10K_scan2.xdi
# XDI/1.0
# Column.1: energy eV
# Column.2: i0
# Column.3: itrans
# Column.4: irefer
# Beamline.name: SSRL 2-3
# Beamline.notes: vert slits = 0.6mm
# Detector.I0: N2 15cm
# Detector.I1: Ar 30cm
# Detector.I2: Ar 15cm
# Element.edge: K
# Element.symbol: As
# Mono.d_spacing: 3.13550
# Mono.name: Si(111)
# Mono.notes: unfocused, detuned 75%, clockwise at E=12000eV
# Sample.formula: As2O5
# Sample.name: As2O5 arsenic (V) oxide
# Sample.prep: powder on tape (5 layers)
# Sample.reference: GaAs powder
# Sample.temperature: 10K
# Scan.start_time: 1997-04-19 18:40:39
# ///
#    Note: mono d_spacing is nominal!
#     exafs to K16, GaAs in IR
#     413  E XMU XMUR I0
#-------------
#   energy   i0   itrans  irefer
   11634.9  546103  96985.5  39787
   11654.9  541284  96855.5  40193
   11675.1  535365  96505.5  40538
   11695  528338  95924.5  40761
   11714.9  524405  95896.5  41238
   11735  518512  95499.5  41520
   11755.1  512779  95125.5  41840
   11775  508291  94917.5  42225
   11794.9  502459  94442.5  42478
   11814.9  497106  93952.5  42710
   11835  492100  93255.5  42801
   11845.4  488982  92443.5  42555
   11846.6  489343  92453.5  42574
   11847.5  488393  92236.5  42467
   11848.4  488356  92154.5  42433
   11849.6  487569  91914.5  42321
   11850.6  487062  91742.5  42234
   11851.5  486572  91549.5  42135
   11852.4  486720  91484.5  42083
   11853.6  486377  91265.5  41963
   11854.5  487410  91315.5  41947
   11855.4  486186  90937.5  41751
   11856.4  486936  90862.5  41657
   11857.6  486000  90385.5  41357
   11858.5  486082  90121.5  41152
   11859.4  485573  89708.5  40843
   11860.6  486027  89229.5  40399
   11861.6  485245  88612.5  39862
   11862.5  485212  87968.5  39193
   11863.4  484114  87057.5  38206
   11864.6  483568  85537.5  35935
   11865.5  482650  83974.5  33215
   11866.5  483362  82292.5  29897
   11867.4  482754  79654.5  26058
   11868.6  483347  74315.5  21402
   11869.5  482780  68417.5  18710
   11870.5  482453  59876.5  16035
   11871.4  481512  49306.5  13203
   11872.6  480889  31791.5  8633
   11873.5  480340  20807.5  5742
   11874.4  480300  14072.5  3944
   11875.4  480348  11307.5  3245
   11876.6  480540  13114.5  3924
   11877.5  480352  16321.5  4997
   11878.4  479585  20147.5  6272
   11879.4  479434  23758.5  7476.99
   11880.6  479013  28277.5  9006
   11881.5  478394  30506.5  9770
   11882.4  477810  31870.5  10237
   11883.7  477652  32792.5  10542
   11884.6  476522  32957.5  10589
   11885.5  475896  33031.5  10610
   11886.4  474899  33078.5  10640
   11887.6  476049  33377.5  10755
   11888.6  475171  33554.5  10820
   11889.5  476223  33983.5  10955
   11890.4  475367  34353.5  11063
   11891.6  476069  35229.5  11329
   11892.6  474743  35774.5  11505
   11893.5  475184  36391.5  11729
   11894.4  474106  36877.5  11927
   11895.6  475321  37648.3  12262.8
   11896.9  474357  38103.3  12500.8
   11898.4  475209  38681.3  12718
   11899.7  474667  39161.4  12849.2
   11901.2  475732  40291.6  13184.5
   11903  475549  41791.7  13669.9
   11904.6  476962  43093.9  14118.4
   11906.4  477246  44419.1  14593.9
   11908.3  477878  45639.3  15026.5
   11910.1  479328  46689.6  15387.2
   11912.3  480926  47249  15547
   11914.2  482270  47115.3  15468.9
   11916.3  483081  46333.7  15222.8
   11918.8  485617  45181.1  14946.8
   11921  486753  43931.5  14662.9
   11923.4  488678  42853  14364.1
   11925.9  489272  42049.5  14129.3
   11928.4  491341  41555  13971.6
   11930.9  493935  41041.6  13774
   11933.7  496835  40381.1  13475.5
   11936.4  499720  39854.8  13214.1
   11939.2  501866  39640.4  13108.7
   11942.3  503438  39528.1  13115.4
   11945.1  507845  39811.8  13258.2
   11948.2  513319  40232.5  13444.1
   11951.3  515874  40549.3  13592
   11954.8  519920  41168.1  13864
   11957.9  524634  41882  14172.1
   11961.3  529063  42621.8  14443.3
   11964.7  532949  43225.7  14635.5
   11968.5  536309  43759.7  14862.9
   11971.9  542164  44622.7  15318.3
   11975.6  546365  45673.6  15850.8
   11979.4  551410  46899.6  16342.3
   11983.1  555962  47981.7  16741
   11987.2  558020  48610.8  16927.7
   11991.3  566153  49577.9  17156.5
   11995.3  571175  50271.1  17268.4
   11999.4  575617  50841.2  17399.3
   12003.5  580953  51379.4  17613.3
   12007.9  586288  51844.7  17867.5
   12012.3  589996  52116  18051.7
   12016.7  598227  52676.3  18359.9
   12021.1  603866  53051.6  18595.2
   12025.8  609641  53366  18825.7
   12030.5  615733  53505.3  18974.1
   12035.3  621992  53623.8  19107.7
   12040  628097  53903.2  19288.4
   12045  634923  54575.7  19620.1
   12050.1  639580  55336.2  19975.9
   12055.2  645065  56102.8  20243.8
   12060.2  653529  57015.4  20537.8
   12065.3  661154  57879  20903.8
   12070.7  667027  58569.6  21214.9
   12076.1  674806  59538.3  21534.1
   12081.5  679592  60216  21733.4
   12086.9  687718  61149.8  22055.7
   12092.6  694194  61992.5  22434.1
   12098.3  701824  62961.3  22952.7
   12104.1  708511  63875.1  23452.2
   12109.8  714351  64709  23894.9
   12115.9  723274  65808.9  24490.7
   12121.6  730289  66686.8  24991.5
   12127.7  737771  67689.8  25535.4
   12133.8  745525  68738.8  26034.3
   12140.2  753435  69737.8  26427.4
   12146.3  760255  70553.8  26709.5
   12152.8  766755  71223.9  26979.7
   12159.2  774881  71897  27265
   12165.6  782216  72615.2  27620.4
   12172.4  791040  73515.3  28075.8
   12178.9  800305  74733.5  28642.3
   12185.7  807587  75794.8  29134.9
   12192.5  814222  76588  29555.6
   12199.6  821310  77380.3  30022.3
   12206.4  829223  78507.7  30601.2
   12213.5  837696  79840  31296
   12220.7  845863  80861.4  31909
   12227.8  853724  81704.8  32458.1
   12235  862351  82909.2  33100.2
   12242.5  871205  84126.8  33748.5
   12250  879242  85319.2  34313.7
   12257.5  887286  86375.8  34778.1
   12265.1  895838  87525.4  35305.6
   12272.6  903249  88622  35867.1
   12280.5  912245  89923.6  36493.7
   12288.4  920521  91298.2  37214.3
   12296.3  926783  92368.9  37838.1
   12304.2  937441  93838.7  38648
   12312.1  944822  94835.4  39255.9
   12320.4  953499  95931.3  39926.9
   12328.7  963348  97304.1  40708.9
   12336.6  974033  98738  41536.1
   12345.2  981976  99951.8  42259.3
   12353.5  989141  101070  42924.6
   12362.2  997848  102389  43677
   12370.5  1.00551e+06  103561  44383.5
   12379.2  1.01395e+06  104943  45183
   12387.9  1.02125e+06  106057  45818.6
   12396.9  1.03089e+06  107417  46577.3
   12405.6  1.0396e+06  108710  47316
   12414.7  1.04818e+06  110122  48140.9
   12423.8  1.05573e+06  111606  49032.8
   12432.8  1.06653e+06  113315  50029.8
   12441.9  1.07526e+06  114665  50894.9
   12451.4  1.08184e+06  115730  51669
   12460.5  1.09107e+06  117110  52558.3
   12470  1.09865e+06  118520  53492.6
   12479.5  1.10636e+06  119984  54438
   12489  1.11657e+06  121700  55483.5
   12498.9  1.12483e+06  123308  56465
   12508.4  1.13056e+06  124454  57264.6
   12518.3  1.13863e+06  125935  58223.3
   12528.2  1.14807e+06  127433  59200.1
   12538.1  1.15576e+06  128845  60135
   12548.1  1.16363e+06  130274  61089.9
   12558.4  1.17143e+06  131768  62088.9
   12568.7  1.17886e+06  133288  63134
   12578.7  1.1875e+06  134825  64199.1
   12589.1  1.19685e+06  136515  65333.4
   12599.4  1.20219e+06  137676  66266.7
   12610.2  1.21007e+06  139144  67356.1
   12620.6  1.21964e+06  140868  68567.6
   12631.3  1.22523e+06  142286  69621.1
   12642.1  1.23398e+06  144156  70912.8
   12652.9  1.23996e+06  145518  71964.5
   12663.8  1.24724e+06  146955  73025.2
   12674.6  1.25293e+06  148249  74058.2
   12685.8  1.26013e+06  149830  75221.1
   12696.7  1.2676e+06  151464  76461.1
   12708  1.27468e+06  153048  77673.2
   12719.3  1.28148e+06  154657  78939.4
   12730.6  1.28633e+06  156096  80103.6
   12741.9  1.28939e+06  157257  81161.9
   12753.6  1.29856e+06  159206  82610.4
   12764.9  1.30506e+06  160768  83896.9
   12776.7  1.31422e+06  162602  85331.5
   12788.4  1.31941e+06  164084  86583
   12800.2  1.32262e+06  165257  87688.8
   12812  1.32678e+06  166593  88893.6
   12824.2  1.3333e+06  168273  90275.5
   12836  1.34026e+06  169943  91678.5
   12848.2  1.34476e+06  171335  92932.4
   12860.5  1.34946e+06  172735  94227.6
   12872.4  1.35375e+06  174192  95537.7
   12885.1  1.35726e+06  175623  96893

File: as2o5_100K_scan2.xdi
# XDI/1.0
# Column.1: energy eV
# Column.2: i0
# Column.3: itrans
# Column.4: irefer
# Beamline.name: SSRL 2-3
# Beamline.notes: vert slits = 0.6mm
# Detector.I0: N2 15cm
# Detector.I1: Ar 30cm
# Detector.I2: Ar 15cm
# Element.edge: K
# Element.symbol: As
# Mono.d_spacing: 3.13550
# Mono.name: Si(111)
# Mono.notes: unfocused, detuned 75%, clockwise at E=12000eV
# Sample.formula: As2O5
# Sample.name: As2O5 arsenic (V) oxide
# Sample.prep: powder on tape (5 layers)
# Sample.reference: GaAs powder
# Sample.temperature: 100K
# Scan.start_time: 1997-04-19 21:41:34
# ///
#    Note: mono d_spacing is nominal!
#     exafs to K16, GaAs in IR
#     413  E XMU XMUR I0
#-------------
#   energy   i0   itrans  irefer
   11634.9  528022  93707.5  38137
   11654.9  522927  93521.5  38516
   11675.1  517401  93230.5  38854
   11695  511643  92864.5  39151
   11714.9  507374  92730.5  39548
   11735  502147  92451.5  39878
   11755.1  496472  92041.5  40166
   11775  491888  91828.5  40544
   11794.9  486878  91465.5  40823
   11814.9  481735  91005.5  41058
   11835  477294  90407.5  41172
   11845.4  474630  89653.5  40950
   11846.6  474381  89553.5  40906
   11847.5  473198  89259.5  40778
   11848.4  473664  89296.5  40789
   11849.6  472180  88931.5  40613
   11850.6  472671  88921.5  40615
   11851.5  471569  88611.5  40460
   11852.4  471948  88609.5  40439
   11853.6  471756  88391.5  40303
   11854.5  472380  88342.5  40256
   11855.4  472022  88108.5  40112
   11856.4  471956  87893.5  39964
   11857.6  471293  87421.5  39652
   11858.5  471872  87226.5  39465
   11859.4  470629  86652.5  39089
   11860.6  471063  86108.5  38561
   11861.6  470251  85430.5  37973
   11862.5  470089  84679.5  37157
   11863.4  469383  83740.5  36032
   11864.6  469045  82065.5  33285
   11865.5  468340  80315.5  30209
   11866.5  469054  78302.5  26744
   11867.4  468716  75148.5  23091
   11868.6  468503  68610.5  18992
   11869.5  468270  61464.5  16443
   11870.5  467984  51651.5  13712
   11871.4  467345  40783.5  10879
   11872.6  466999  24797.5  6743
   11873.5  466471  16070.5  4453
   11874.4  466824  11588.5  3287
   11875.4  466830  10848.5  3172
   11876.6  466951  14003.5  4250
   11877.5  466469  17373.5  5362
   11878.4  466410  21164.5  6615.01
   11879.4  466044  24434.5  7701
   11880.6  466248  28216.5  8973
   11881.5  465371  29937.5  9564
   11882.4  465081  30890.5  9877.99
   11883.7  464316  31405.5  10039
   11884.6  463700  31509.5  10072
   11885.5  463149  31561.5  10090
   11886.4  463625  31697.5  10148
   11887.6  463534  31928.5  10240
   11888.6  463226  32177.5  10319
   11889.5  463646  32593.5  10450
   11890.4  462978  33040.5  10579
   11891.6  463001  33847.5  10834
   11892.6  462096  34382.5  11012
   11893.5  462460  34954.5  11218
   11894.4  461720  35428.5  11423
   11895.6  461894  36070.3  11708.8
   11896.9  461687  36529.3  11923.8
   11898.4  462082  37088.4  12118
   11899.7  461471  37650.5  12275.2
   11901.2  462258  38795.6  12619.5
   11903  462307  40297.7  13105.9
   11904.6  463182  41500.9  13523.4
   11906.4  463605  42776.1  13969.9
   11908.3  465015  43975.4  14392.5
   11910.1  465408  44793.6  14662.3
   11912.3  467470  45248.9  14787
   11914.2  468701  44986.3  14667.9
   11916.3  470005  44218.7  14440.8
   11918.8  471348  42949.1  14143.8
   11921  473726  41877.5  13901.9
   11923.4  475356  40888  13631.1
   11925.9  476871  40234.5  13442.3
   11928.4  479836  39825  13299.7
   11930.9  481502  39232.5  13081
   11933.7  485084  38636.2  12799.5
   11936.4  487383  38155.8  12570.1
   11939.2  489654  37984.4  12493.7
   11942.3  491327  37891.1  12500.4
   11945.1  495761  38176.8  12647.2
   11948.2  500652  38562.6  12815.1
   11951.3  503728  38938.3  12983
   11954.8  506398  39452.1  13214
   11957.9  510788  40130  13511.1
   11961.3  514881  40795.8  13737.3
   11964.7  518652  41356.7  13914.6
   11968.5  522529  41933.7  14170.9
   11971.9  527195  42719.6  14588.3
   11975.6  531299  43748.6  15098.8
   11979.4  535445  44876.7  15538.3
   11983.1  539910  45891.7  15912
   11987.2  542268  46518.8  16093.7
   11991.3  549442  47389.9  16293.5
   11995.3  554011  48024.1  16398.4
   11999.4  558910  48614.2  16532.3
   12003.5  564404  49152.4  16758.3
   12007.9  569105  49543.7  16970.5
   12012.3  571724  49702  17117.6
   12016.7  580874  50343.2  17438.9
   12021.1  585624  50647.6  17648.2
   12025.8  591848  50982  17885.7
   12030.5  597885  51115.4  18027.2
   12035.3  604222  51273.8  18167.7
   12040  609731  51518.2  18331.4
   12045  615902  52134.7  18631.1
   12050.1  620751  52876.2  18971.9
   12055.2  625133  53517.8  19200.8
   12060.2  634715  54499.4  19522.8
   12065.3  640759  55195  19824.8
   12070.7  647371  55966.6  20154.9
   12076.1  653612  56786.3  20416.1
   12081.5  660694  57632  20662.4
   12086.9  667038  58398.7  20939.7
   12092.6  675098  59355.5  21364.2
   12098.3  681156  60181.3  21824.7
   12104.1  687770  61057.1  22289.2
   12109.8  695153  62022  22781.9
   12115.9  703212  63028.9  23335.7
   12121.6  710935  63966.8  23847.5
   12127.7  717944  64898.8  24356.4
   12133.8  725612  65919.7  24814.3
   12140.2  732731  66802.8  25163.4
   12146.3  740910  67720.8  25502.5
   12152.8  747383  68372.9  25767.7
   12159.2  756013  69099  26068
   12165.6  762900  69790.2  26421.4
   12172.4  772298  70747.3  26883.8
   12178.9  780842  71874.5  27417.3
   12185.7  788328  72882.7  27872.9
   12192.5  796208  73773  28334.6
   12199.6  803661  74630.3  28813.3
   12206.4  811241  75711.7  29357.2
   12213.5  820336  77059  30056
   12220.7  828167  77992.4  30628
   12227.8  837420  78966.8  31210.1
   12235  845711  80131.2  31830.2
   12242.5  854242  81308.8  32444.5
   12250  861792  82425.2  32962.7
   12257.5  867525  83221.8  33322.1
   12265.1  877157  84500.4  33916.6
   12272.6  886641  85783.9  34545.1
   12280.5  895279  87017.6  35149.7
   12288.4  904455  88443.3  35881.4
   12296.3  912516  89653.9  36562.1
   12304.2  921480  90925.7  37271
   12312.1  929565  91987.5  37892.9
   12320.4  937265  92992.3  38521.9
   12328.7  947001  94320  39276.9
   12336.6  954479  95396.9  39945.1
   12345.2  963623  96723.8  40727.3
   12353.5  971393  97854.7  41362.6
   12362.2  980034  99150.7  42090
   12370.5  988339  100352  42797.4
   12379.2  996898  101705  43558
   12387.9  1.00505e+06  102894  44221.6
   12396.9  1.01311e+06  104111  44915.3
   12405.6  1.02235e+06  105465  45677.1
   12414.7  1.02993e+06  106741  46404.9
   12423.8  1.03871e+06  108296  47317.8
   12432.8  1.04477e+06  109451  48076.8
   12441.9  1.05448e+06  110886  48975.9
   12451.4  1.06046e+06  111894  49718.1
   12460.5  1.06955e+06  113236  50580.3
   12470  1.07691e+06  114603  51462.6
   12479.5  1.08616e+06  116187  52452
   12489  1.09462e+06  117696  53389.4
   12498.9  1.09995e+06  118896  54167
   12508.4  1.10788e+06  120293  55049.6
   12518.3  1.11534e+06  121651  55941.3
   12528.2  1.12177e+06  122841  56757.1
   12538.1  1.12951e+06  124231  57680
   12548.1  1.13978e+06  125895  58718.9
   12558.4  1.1454e+06  127143  59588.9
   12568.7  1.15358e+06  128663  60613
   12578.7  1.16039e+06  129968  61556.2
   12589.1  1.16795e+06  131436  62591.4
   12599.4  1.17439e+06  132709  63561.7
   12610.2  1.18176e+06  134146  64607.1
   12620.6  1.19052e+06  135787  65770.6
   12631.3  1.19704e+06  137273  66851.2
   12642.1  1.20293e+06  138734  67925.8
   12652.9  1.20937e+06  140130  68955.5
   12663.8  1.21554e+06  141435  69948.3
   12674.6  1.22207e+06  142840  70992.1
   12685.8  1.22739e+06  144161  72024.1
   12696.7  1.23601e+06  145869  73266.1
   12708  1.24021e+06  147111  74294.2
   12719.3  1.25079e+06  149142  75730.4
   12730.6  1.25517e+06  150472  76834.6
   12741.9  1.26212e+06  152113  78093
   12753.6  1.26623e+06  153411  79228.4
   12764.9  1.27085e+06  154687  80327.9
   12776.7  1.27801e+06  156280  81622.4
   12788.4  1.28501e+06  157937  82950.1
   12800.2  1.29034e+06  159324  84148.8
   12812  1.29508e+06  160714  85356.6
   12824.2  1.2987e+06  162017  86526.4
   12836  1.30483e+06  163546  87844.4
   12848.2  1.31269e+06  165321  89258.4
   12860.5  1.31477e+06  166428  90364.5
   12872.4  1.31923e+06  167895  91661.7
   12885.1  1.32558e+06  169632  93149