Folder: XASDataLibrary/data (part 2)

File: as2o3_100K_scan2.xdi
# XDI/1.0
# Column.1: energy eV
# Column.2: i0
# Column.3: itrans
# Column.4: irefer
# Beamline.name: SSRL 2-3
# Beamline.notes: vert slits = 0.6mm
# Detector.I0: N2 15cm
# Detector.I1: Ar 30cm
# Detector.I2: Ar 15cm
# Element.edge: K
# Element.symbol: As
# Mono.d_spacing: 3.13550
# Mono.name: Si(111)
# Mono.notes: unfocused, detuned 75%, clockwise at E=12000eV
# Sample.formula: As2O3
# Sample.name: As2O3 arsenious oxide
# Sample.prep: powder on tape (2 layers)
# Sample.reference: GaAs powder
# Sample.temperature: 100K
# Scan.start_time: 1997-04-19 23:43:03
# ///
#    Note: mono d_spacing is nominal!
#     exafs to K16, GaAs in IR
#     413  E XMU XMUR I0
#-------------
#   energy   i0   itrans  irefer
   11634.9  511889  94191.5  38431
   11654.9  506843  93923.5  38772
   11675.1  501933  93696.5  39134
   11695  496501  93358.5  39458
   11714.9  491475  93083.5  39793
   11735  487178  92898.5  40173
   11755.1  482116  92567.5  40501
   11775  476765  92171.5  40797
   11794.9  472307  91864.5  41114
   11814.9  467288  91376.5  41329
   11835  462686  90647.5  41392
   11845.4  460139  89784.5  41094
   11846.6  459797  89628.5  41036
   11847.5  459459  89467.5  40965
   11848.4  458824  89274.5  40869
   11849.6  458278  89014.5  40734
   11850.6  458144  88876.5  40670
   11851.5  457817  88657.5  40556
   11852.4  458525  88621.5  40514
   11853.6  458315  88295.5  40345
   11854.5  458780  88114.5  40220
   11855.4  458152  87707.5  39991
   11856.4  458110  87337.5  39756
   11857.6  457620  86589.5  39318
   11858.5  457659  86016.5  38937
   11859.4  457076  85133.5  38392
   11860.6  457536  83849.5  37503
   11861.6  456716  82312.5  36467
   11862.5  456372  80241.5  34967
   11863.4  455453  77428.5  32868
   11864.6  455509  71623.5  28418
   11865.5  455101  64626.5  23702
   11866.5  455697  55066.5  18450
   11867.4  455186  42683.5  13041
   11868.6  455799  26485.5  7367
   11869.5  454490  19330.5  5202
   11870.5  454796  17141.5  4592
   11871.4  454154  19220.5  5210
   11872.6  453192  24449.5  6768
   11873.5  453183  28414.5  8006
   11874.4  453376  31996.5  9206
   11875.4  453355  35662.5  10533
   11876.6  453295  39324.5  11986
   11877.5  453070  40301.5  12479
   11878.4  452802  39528.5  12375
   11879.4  452555  37680.5  11890
   11880.6  452475  35107.5  11169
   11881.5  452402  34378.5  10964
   11882.4  451937  34735.5  11088
   11883.7  451353  36010.5  11483
   11884.6  450875  36873.5  11762
   11885.5  450519  37479.5  11972
   11886.4  450273  38096.5  12188
   11887.6  450924  39158.5  12541
   11888.6  450792  39896.5  12773
   11889.5  450819  40628.5  13000
   11890.4  450783  41328.5  13209
   11891.6  449915  42533.5  13589
   11892.6  449871  43577.5  13952
   11893.5  450119  44429.5  14262
   11894.4  449461  44881.5  14480
   11895.6  449730  45152.3  14671.8
   11896.9  449104  45170.3  14746.8
   11898.4  449107  45310.4  14783
   11899.7  448947  45413.4  14779.2
   11901.2  450112  45821.6  14880.5
   11903  450221  46294.7  15038.9
   11904.6  450689  46634.9  15184.4
   11906.4  451109  46971.1  15337.9
   11908.3  452313  47133.4  15413.6
   11910.1  453098  46598.6  15238.3
   11912.3  454883  45556  14864
   11914.2  455769  44723.3  14566.9
   11916.3  457695  44418.7  14496.8
   11918.8  458432  44419.1  14628.8
   11921  460227  44298.5  14702.9
   11923.4  462585  43678  14543.1
   11925.9  464685  43028.5  14359.3
   11928.4  467194  42934  14319.6
   11930.9  469333  43022.6  14309
   11933.7  471977  43120.1  14260.5
   11936.4  474138  43563.8  14324.1
   11939.2  476701  43781.4  14383.7
   11942.3  477863  43457.1  14330.4
   11945.1  482547  43563.8  14412.2
   11948.2  486675  44243.5  14688.1
   11951.3  490120  45327.3  15095
   11954.8  493653  46126.1  15438
   11957.9  497580  46775  15729.1
   11961.3  500626  47596.9  16004.3
   11964.7  504742  48306.7  16232.5
   11968.5  508927  48976.7  16536.9
   11971.9  512898  49630.6  16946.3
   11975.6  517031  50231.6  17323.8
   11979.4  521811  51112.6  17680.3
   11983.1  524992  52129.7  18062
   11987.2  527980  52862.8  18253.7
   11991.3  535336  53724.9  18432.5
   11995.3  539161  54171.1  18458.4
   11999.4  544902  54455.2  18499.3
   12003.5  548771  54301.5  18492.3
   12007.9  553771  54141.7  18527.4
   12012.3  558806  54232  18661.7
   12016.7  565154  54927.3  19012.9
   12021.1  570382  55583.6  19350.2
   12025.8  576474  56283.9  19725.7
   12030.5  581588  56727.3  19988.2
   12035.3  587832  57392.7  20314.7
   12040  593189  58175.2  20683.4
   12045  599226  59035.7  21082.1
   12050.1  605586  59945.3  21492.9
   12055.2  609112  60653.8  21725.8
   12060.2  617907  61822.4  22117.8
   12065.3  624089  62544  22461.8
   12070.7  631655  63109.6  22706.9
   12076.1  636937  63965.3  22966.1
   12081.5  645038  65466  23463.4
   12086.9  652074  66703.8  23892.7
   12092.6  658566  67590.5  24318.2
   12098.3  664602  68093.3  24684.7
   12104.1  671814  68821.1  25111.3
   12109.8  678665  69842  25642.9
   12115.9  686970  71232.9  26361.7
   12121.6  694552  72228.8  26929.5
   12127.7  700811  72896.8  27331.4
   12133.8  707437  73814.8  27771.3
   12140.2  715749  74866.8  28190.4
   12146.3  722545  75316.8  28340.5
   12152.8  729823  75720.9  28507.7
   12159.2  737745  76225  28737
   12165.6  744773  77399.1  29267.3
   12172.4  753448  78979.3  29977.8
   12178.9  761763  80399.5  30635.3
   12185.7  770069  82004.7  31335.9
   12192.5  778636  83500.1  32050.6
   12199.6  785312  84522.3  32610.3
   12206.4  792787  85434.6  33103.2
   12213.5  801946  86431  33690.1
   12220.7  809685  87341.4  34282
   12227.8  816928  88120.8  34805.1
   12235  824105  89083.2  35349.2
   12242.5  831745  90488.7  36070.4
   12250  840438  92201.3  36836.7
   12257.5  848464  93829.8  37516.1
   12265.1  856661  95407.3  38253.5
   12272.6  864913  96554  38820.1
   12280.5  872777  97503.6  39351.7
   12288.4  881752  98590.3  39939.4
   12296.3  889392  99418.9  40494.1
   12304.2  896752  100363  41084.9
   12312.1  906553  101712  41849.9
   12320.4  914016  102950  42585.9
   12328.7  921733  104441  43425.9
   12336.6  929407  105930  44299.1
   12345.2  938626  107344  45127.3
   12353.5  947799  108912  45975.6
   12362.2  955526  110410  46809
   12370.5  963574  111868  47651.4
   12379.2  971883  113218  48445
   12387.9  979058  114326  49073.6
   12396.9  987682  115731  49881.3
   12405.6  995881  117105  50663
   12414.7  1.00309e+06  118291  51400.9
   12423.8  1.00996e+06  119603  52224.8
   12432.8  1.01865e+06  121301  53249.8
   12441.9  1.02852e+06  123236  54386.9
   12451.4  1.03784e+06  124955  55475
   12460.5  1.04372e+06  126157  56306.3
   12470  1.05234e+06  127681  57288.6
   12479.5  1.06059e+06  129096  58226
   12489  1.0678e+06  130315  59047.5
   12498.9  1.07446e+06  131437  59846
   12508.4  1.08264e+06  132825  60755.6
   12518.3  1.09076e+06  134356  61732.3
   12528.2  1.09868e+06  136005  62802.1
   12538.1  1.10559e+06  137558  63817
   12548.1  1.11291e+06  139256  64913.9
   12558.4  1.11987e+06  140901  66004.9
   12568.7  1.12816e+06  142656  67174
   12578.7  1.13621e+06  144245  68266.1
   12589.1  1.14358e+06  145707  69348.4
   12599.4  1.15049e+06  147046  70373.7
   12610.2  1.15657e+06  148360  71421.1
   12620.6  1.16481e+06  150037  72618.6
   12631.3  1.16999e+06  151419  73699.2
   12642.1  1.17837e+06  153285  75018.8
   12652.9  1.18569e+06  155085  76272.5
   12663.8  1.19182e+06  156672  77440.3
   12674.6  1.19807e+06  158174  78590.1
   12685.8  1.2054e+06  159796  79799.1
   12696.7  1.21079e+06  161112  80889.1
   12708  1.21922e+06  162888  82227.2
   12719.3  1.22293e+06  163970  83237.3
   12730.6  1.23014e+06  165597  84524.6
   12741.9  1.23684e+06  167269  85852
   12753.6  1.2426e+06  168918  87204.4
   12764.9  1.24601e+06  170260  88377.9
   12776.7  1.25298e+06  172081  89848.4
   12788.4  1.25912e+06  173809  91272.1
   12800.2  1.26475e+06  175405  92615.8
   12812  1.27057e+06  176948  93942.6
   12824.2  1.27739e+06  178674  95402.5
   12836  1.2811e+06  179971  96595.4
   12848.2  1.28754e+06  181682  98059.5
   12860.5  1.29313e+06  183321  99527.5
   12872.4  1.29653e+06  184705  100777
   12885.1  1.30259e+06  186538  102377

File: as2o3_100K_scan3.xdi
# XDI/1.0
# Column.1: energy eV
# Column.2: i0
# Column.3: itrans
# Column.4: irefer
# Beamline.name: SSRL 2-3
# Beamline.notes: vert slits = 0.6mm
# Detector.I0: N2 15cm
# Detector.I1: Ar 30cm
# Detector.I2: Ar 15cm
# Element.edge: K
# Element.symbol: As
# Mono.d_spacing: 3.13550
# Mono.name: Si(111)
# Mono.notes: unfocused, detuned 75%, clockwise at E=12000eV
# Sample.formula: As2O3
# Sample.name: As2O3 arsenious oxide
# Sample.prep: powder on tape (2 layers)
# Sample.reference: GaAs powder
# Sample.temperature: 100K
# Scan.start_time: 1997-04-19 23:43:03
# ///
#    Note: mono d_spacing is nominal!
#     exafs to K16, GaAs in IR
#     413  E XMU XMUR I0
#-------------
#   energy   i0   itrans  irefer
   11634.9  511079  94035.5  38347
   11654.9  505696  93732.5  38691
   11675.1  501190  93586.5  39079
   11695  495890  93229.5  39388
   11714.9  490977  92979.5  39747
   11735  486190  92716.5  40087
   11755.1  481241  92408.5  40416
   11775  476613  92129.5  40748
   11794.9  471781  91764.5  41051
   11814.9  466684  91247.5  41254
   11835  462054  90517.5  41317
   11845.4  459052  89562.5  40989
   11846.6  459022  89458.5  40950
   11847.5  458501  89290.5  40868
   11848.4  458111  89107.5  40785
   11849.6  457116  88781.5  40623
   11850.6  457493  88739.5  40598
   11851.5  457187  88514.5  40475
   11852.4  457786  88455.5  40435
   11853.6  457413  88110.5  40247
   11854.5  457643  87872.5  40091
   11855.4  457209  87476.5  39859
   11856.4  456936  87058.5  39616
   11857.6  456520  86297.5  39148
   11858.5  456807  85775.5  38802
   11859.4  456153  84849.5  38230
   11860.6  456118  83409.5  37249
   11861.6  455577  81890.5  36213
   11862.5  455514  79800.5  34679
   11863.4  454599  76819.5  32423
   11864.6  454206  70660.5  27770
   11865.5  454328  63180.5  22839
   11866.5  454504  53198.5  17553
   11867.4  454319  40552.5  12221
   11868.6  454205  24801.5  6833
   11869.5  453578  18432.5  4939
   11870.5  453290  17250.5  4623
   11871.4  452511  19842.5  5389
   11872.6  452242  25249.5  7003
   11873.5  451876  29127.5  8236
   11874.4  452233  32760.5  9469
   11875.4  451815  36238.5  10753
   11876.6  452383  39625.5  12108
   11877.5  451504  40142.5  12457
   11878.4  451917  39089.5  12263
   11879.4  451345  37084.5  11712
   11880.6  451474  34752.5  11058
   11881.5  450935  34284.5  10934
   11882.4  451104  34859.5  11120
   11883.7  449668  36102.5  11504
   11884.6  449596  36929.5  11775
   11885.5  449201  37495.5  11974
   11886.4  449643  38172.5  12203
   11887.6  449541  39165.5  12533
   11888.6  449706  39931.5  12771
   11889.5  449228  40602.5  12984
   11890.4  449415  41365.5  13211
   11891.6  449027  42645.5  13624
   11892.6  448967  43691.5  13982
   11893.5  448400  44403.5  14271
   11894.4  448264  44824.5  14475
   11895.6  447845  44981.2  14618.8
   11896.9  448162  45088.3  14706.8
   11898.4  447762  45179.4  14729
   11899.7  448051  45350.4  14756.2
   11901.2  447960  45653.5  14820.5
   11903  448920  46190.7  15003.9
   11904.6  448939  46479.9  15139.4
   11906.4  450333  46914.1  15309.9
   11908.3  450720  46940.4  15348.6
   11910.1  452305  46440.6  15182.2
   11912.3  453121  45289  14766
   11914.2  455078  44603.3  14518.9
   11916.3  455843  44221.7  14433.8
   11918.8  457315  44311.1  14604.8
   11921  459269  44158.5  14653.9
   11923.4  461192  43488  14483.1
   11925.9  463597  42894.5  14311.3
   11928.4  465278  42765  14258.6
   11930.9  468148  42903.6  14260
   11933.7  470869  43029.1  14215.5
   11936.4  473120  43478.7  14285.1
   11939.2  475106  43627.4  14320.7
   11942.3  476418  43321.1  14283.4
   11945.1  481860  43496.8  14387.2
   11948.2  485172  44134.6  14642.1
   11951.3  489194  45261.3  15067
   11954.8  492182  46017.1  15369
   11957.9  495092  46650  15630.1
   11961.3  499397  47591.8  15945.3
   11964.7  503657  48302.8  16175.6
   11968.5  506738  48872.7  16447.9
   11971.9  511520  49601.6  16883.3
   11975.6  515830  50207.6  17257.8
   11979.4  519543  51020.6  17585.3
   11983.1  523199  52073.7  17965
   11987.2  526380  52823.8  18181.7
   11991.3  533707  53684.9  18356.5
   11995.3  537514  54114  18372.4
   11999.4  543061  54372.2  18404.3
   12003.5  548122  54334.5  18442.4
   12007.9  552722  54135.7  18456.5
   12012.3  556490  54110  18543.7
   12016.7  564021  54953.3  18957.9
   12021.1  568057  55476.6  19249.2
   12025.8  574690  56216  19636.7
   12030.5  580155  56703.3  19914.2
   12035.3  586209  57369.7  20236.7
   12040  591707  58166.3  20610.4
   12045  597273  58963.7  20979.1
   12050.1  602994  59827.3  21378.9
   12055.2  607144  60589.8  21628.8
   12060.2  616089  61777.4  22019.8
   12065.3  621827  62464  22342.8
   12070.7  629252  63024.6  22592.9
   12076.1  633401  63774.3  22817.1
   12081.5  640410  65157  23263.4
   12086.9  648843  66514.8  23747.7
   12092.6  654958  67347.5  24157.2
   12098.3  661320  67888.3  24519.7
   12104.1  667774  68534.2  24918.3
   12109.8  674124  69534  25436.9
   12115.9  682083  70891.9  26137.7
   12121.6  689835  71875.8  26682.5
   12127.7  695823  72530.8  27106.4
   12133.8  704320  73642.7  27612.3
   12140.2  711971  74630.7  27995.4
   12146.3  719028  75096.8  28159.5
   12152.8  726499  75531.9  28328.7
   12159.2  733567  75947  28535
   12165.6  739659  77038.1  29015.3
   12172.4  749080  78683.3  29775.8
   12178.9  757352  80123.5  30433.3
   12185.7  764826  81622.8  31076.9
   12192.5  772597  83028  31756.6
   12199.6  779202  84065.3  32309.3
   12206.4  787718  85076.6  32849.1
   12213.5  795871  85947  33387.1
   12220.7  804381  86957.4  34012
   12227.8  812500  87819.8  34552.1
   12235  820041  88827.2  35125.2
   12242.5  828035  90282.7  35868.4
   12250  835806  91909.2  36607.7
   12257.5  844539  93603.8  37307.1
   12265.1  850798  94949.4  37931.6
   12272.6  860482  96269  38579.1
   12280.5  868239  97203.6  39081.7
   12288.4  877419  98326.3  39686.4
   12296.3  885115  99175  40251.1
   12304.2  892618  100131  40841
   12312.1  901104  101326  41548.9
   12320.4  908373  102563  42270.9
   12328.7  916658  104107  43134.9
   12336.6  926369  105817  44096.1
   12345.2  933557  107049  44856.3
   12353.5  942530  108546  45652.6
   12362.2  949000  109939  46463
   12370.5  958021  111498  47329.4
   12379.2  965696  112776  48086
   12387.9  974535  114110  48810.6
   12396.9  983636  115551  49610.3
   12405.6  992094  116943  50413
   12414.7  999114  118117  51132.9
   12423.8  1.00793e+06  119666  52057.8
   12432.8  1.01507e+06  121188  52998.8
   12441.9  1.02349e+06  122907  54056.9
   12451.4  1.03274e+06  124657  55140
   12460.5  1.03935e+06  125954  56004.3
   12470  1.04916e+06  127616  57056.6
   12479.5  1.05656e+06  128920  57946
   12489  1.06281e+06  130020  58718.4
   12498.9  1.07004e+06  131236  59562
   12508.4  1.07791e+06  132601  60440.6
   12518.3  1.08617e+06  134133  61422.3
   12528.2  1.09452e+06  135820  62507.1
   12538.1  1.10021e+06  137254  63448
   12548.1  1.1093e+06  139137  64622.9
   12558.4  1.11605e+06  140729  65701.9
   12568.7  1.12459e+06  142528  66882
   12578.7  1.13403e+06  144301  68064.2
   12589.1  1.14047e+06  145645  69068.4
   12599.4  1.14786e+06  147047  70130.7
   12610.2  1.15424e+06  148407  71203.1
   12620.6  1.16249e+06  150079  72390.6
   12631.3  1.16896e+06  151650  73560.2
   12642.1  1.17591e+06  153346  74766.8
   12652.9  1.1837e+06  155222  76075.5
   12663.8  1.18933e+06  156758  77207.3
   12674.6  1.19476e+06  158171  78290.1
   12685.8  1.20073e+06  159655  79432.1
   12696.7  1.20746e+06  161116  80595.1
   12708  1.21441e+06  162635  81796.2
   12719.3  1.21935e+06  163926  82910.4
   12730.6  1.22575e+06  165457  84147.6
   12741.9  1.23187e+06  167051  85432
   12753.6  1.2374e+06  168675  86768.4
   12764.9  1.24462e+06  170516  88206.9
   12776.7  1.24866e+06  171967  89466.4
   12788.4  1.25431e+06  173613  90854.1
   12800.2  1.2599e+06  175186  92201.8
   12812  1.26785e+06  177072  93696.6
   12824.2  1.27136e+06  178338  94889.5
   12836  1.27713e+06  179893  96232.4
   12848.2  1.28223e+06  181418  97585.4
   12860.5  1.28791e+06  183111  99050.6
   12872.4  1.29285e+06  184656  100419
   12885.1  1.29392e+06  185776  101596

File: as2o3_roomt_scan3.xdi
# XDI/1.0
# Column.1: energy eV
# Column.2: i0
# Column.3: itrans
# Column.4: irefer
# Beamline.name: SSRL 4-1
# Detector.I0: N2 15cm
# Detector.I1: N2 30cm
# Detector.I2: Ar 15cm
# Element.edge: K
# Element.symbol: As
# Mono.d_spacing: 3.13550
# Mono.name: Si(111)
# Mono.notes: unfocused, detuned 40%,counter clockwise at E=12000eV
# Sample.formula: As2O3
# Sample.name: As2O3 arsenious oxide
# Sample.prep: powder, mixed 1:60 with B(OH)3 by wt
# Sample.reference: GaAs powder
# Sample.temperature: room temperature
# Scan.start_time: 1997-01-19 14:12:16
# ///
#    Note: mono d_spacing is nominal!
#     exafs to K15, GaAs in IR
#     320  E XMU XMUR I0
#-------------
#   energy   i0   itrans  irefer
   11650  176131  276780  321037
   11670  175938  277867  324041
   11690  174944  277666  325579
   11710  174176  277839  327511
   11730  173516  278138  329623
   11750  172062  277174  330206
   11770  170650  276190  330783
   11790  169596  275770  331974
   11810  169402  276625  334623
   11830  168578  276067  335365
   11850  167686  273764  332544
   11851.5  166888  272053  330225
   11853  167434  272522  330478
   11854.5  166082  269675  326592
   11856.1  165998  268698  324745
   11857.6  166070  267773  322733
   11859.1  166532  266860  320157
   11860.6  166249  264079  314495
   11862.1  165954  260038  305669
   11863.6  165354  252617  287780
   11865.2  165623  241175  256164
   11866.7  166613  217426  205964
   11868.2  166602  175965  145458
   11869.7  165893  137155  101873
   11871.2  166452  119295  87946
   11872.7  166265  128274  96130
   11874.2  166017  148929  114543
   11875.8  165096  163319  129721
   11877.3  165981  173206  141378
   11878.8  166680  175321  146535
   11880.3  164780  169213  143446
   11881.8  165077  166126  141925
   11883.3  165481  167291  143282
   11884.8  166084  171039  146395
   11886.4  165861  173832  148890
   11887.9  165976  176777  151585
   11889.4  165455  179219  153605
   11890.9  165338  182516  156211
   11892.4  165114  185145  158448
   11893.9  164984  187472  160938
   11895.5  164272  188027  162403
   11897  165445  189738  164727
   11898.5  164310  188792  164181
   11900  165557  190706  165542
   11902.6  164515  190746  165062
   11905.2  165160  192738  167026
   11908  166487  194797  169187
   11910.8  164437  191188  166022
   11913.6  165302  189886  164375
   11916.6  166026  189000  163559
   11919.6  165615  187555  163624
   11922.7  165959  186500  163962
   11925.9  166829  185499  163550
   11929.2  166600  183884  162112
   11932.5  166272  182786  160417
   11936  168043  184415  160636
   11939.4  168850  185129  160415
   11943  169252  185140  160657
   11946.7  169886  185993  161963
   11950.4  171124  188619  164780
   11954.2  172288  191244  167560
   11958.1  174374  194550  171237
   11962  173607  194716  171582
   11966  175350  197524  173778
   11970.2  176261  199358  176085
   11974.3  178499  202627  180966
   11978.6  179654  204760  184240
   11982.9  180903  207279  186786
   11987.3  182429  209932  188822
   11991.8  183753  211962  189376
   11996.4  185411  214097  189635
   12001  187287  216028  190229
   12005.8  188809  217174  191537
   12010.6  190029  217835  192894
   12015.4  192254  219875  195673
   12020.4  195045  222788  199219
   12025.4  195845  223490  200993
   12030.5  196998  224745  203136
   12035.7  199797  228140  206998
   12040.9  202760  232126  211356
   12046.3  203928  234298  213968
   12051.7  207358  239173  219047
   12057.2  209334  242339  221517
   12062.7  211784  245786  224175
   12068.4  215141  250079  228604
   12074.1  216677  252292  230509
   12079.9  218994  255650  232682
   12085.7  221514  259314  235348
   12091.7  224726  263731  239365
   12097.7  225849  265522  242278
   12103.8  228535  269298  247183
   12110  232364  274573  253223
   12116.2  234840  278303  258202
   12122.6  237581  282157  263363
   12129  240570  286117  268415
   12135.4  243886  290256  272805
   12142  246325  293072  275105
   12148.6  248849  295925  277249
   12155.4  252549  300316  281106
   12162.1  255289  303995  284682
   12169  258769  309035  289906
   12175.9  261644  313693  295005
   12183  266836  321222  302556
   12190  268532  324411  306064
   12197.2  273021  330772  313125
   12204.5  275571  334560  317633
   12211.8  279640  340021  324016
   12219.2  282850  344310  329811
   12226.7  284498  346809  333852
   12234.2  288681  352660  340642
   12241.9  292389  358186  347001
   12249.6  296985  365089  353988
   12257.3  300642  370894  359314
   12265.2  304008  376310  364728
   12273.1  308642  383034  371753
   12281.1  313397  389662  378762
   12289.2  315865  393278  383245
   12297.4  319591  398322  389507
   12305.6  323256  403338  395751
   12314  326728  408324  401939
   12322.4  332365  416292  411170
   12330.8  334239  419843  416161
   12339.4  339428  427816  425592
   12348  343402  434317  433377
   12356.7  346779  439647  440134
   12365.5  352407  448543  449037
   12374.3  355943  454115  456331
   12383.3  359888  460154  463169
   12392.3  362641  464570  468404
   12401.4  366648  470659  475458
   12410.5  371342  477886  483817
   12419.8  377478  487122  494511
   12429.1  381390  493724  502733
   12438.5  384103  498803  509609
   12447.9  389434  507312  520260
   12457.5  395012  515985  530929
   12467.1  397514  520555  537357
   12476.8  400635  525725  544451
   12486.6  405027  532512  552973
   12496.4  408580  538304  560355
   12506.4  412956  545323  569018
   12516.4  418916  554693  580246
   12526.4  421754  560101  587508
   12536.6  427627  569771  599148
   12546.8  432672  578318  609739
   12557.1  437840  587043  620648
   12567.5  441088  593095  628911
   12578  445995  601307  639550
   12588.5  449175  607116  647832
   12599.2  453066  613899  657359
   12609.9  457521  621597  667849
   12620.6  463777  631823  681052
   12631.5  466297  637157  688914
   12642.4  471309  646000  700498
   12653.4  474741  652688  709717
   12664.5  480820  663039  722907
   12675.6  484119  669473  731971
   12686.8  489792  679149  744681
   12698.1  493613  686171  754678
   12709.5  497712  693700  765230
   12715.2  501126  699368  772687