Folder: XASDataLibrary/data/As (part 6)

File: ass_100K_scan2.xdi
# XDI/1.0
# Column.1: energy eV
# Column.2: i0
# Column.3: itrans
# Column.4: irefer
# Beamline.name: SSRL 2-3
# Beamline.notes: vert slits = 0.6mm
# Detector.I0: N2 15cm
# Detector.I1: Ar 30cm
# Detector.I2: Ar 15cm
# Element.edge: K
# Element.symbol: As
# Mono.d_spacing: 3.13550
# Mono.name: Si(111)
# Mono.notes: unfocused, detuned 75%, clockwise at E=12000eV
# Sample.formula: AsS
# Sample.name: AsS (realgar)
# Sample.prep: powder on tape (5 layers)
# Sample.reference: GaAs powder
# Sample.temperature: 100K
# Scan.start_time: 1997-04-20 00:46:37
# ///
#    Note: mono d_spacing is nominal!
#     exafs to K16, GaAs in IR
#     413  E XMU XMUR I0
#-------------
#   energy   i0   itrans  irefer
   11634.9  504067  72392.5  29517
   11654.9  499058  72276.5  29821
   11675.1  494389  72209.5  30155
   11695  488449  71947.5  30391
   11714.9  484108  71872.5  30721
   11735  479371  71757.5  31031
   11755.1  473894  71504.5  31269
   11775  469431  71378.5  31577
   11794.9  465216  71247.5  31865
   11814.9  459604  70800.5  32004
   11835  455664  70296.5  32093
   11845.4  452315  69319.5  31725
   11846.6  452796  69296.5  31711
   11847.5  451930  69060.5  31604
   11848.4  451601  68910.5  31532
   11849.6  450623  68592.5  31384
   11850.6  451283  68537.5  31343
   11851.5  450845  68287.5  31224
   11852.4  451125  68117.5  31131
   11853.6  451186  67781.5  30953
   11854.5  451279  67443.5  30770
   11855.4  450248  66914.5  30494
   11856.4  450381  66418.5  30218
   11857.6  449812  65451.5  29695
   11858.5  449680  64584.5  29216
   11859.4  449548  63404.5  28561
   11860.6  449723  61146.5  27314
   11861.6  448706  58650.5  25953
   11862.5  448688  54931.5  23942
   11863.4  448004  49575.5  21127
   11864.6  447904  38130.5  15442
   11865.5  447666  27589.5  10574
   11866.5  447946  18104.5  6454
   11867.4  447497  11024.5  3508
   11868.6  447328  8875.5  2432
   11869.5  446993  11122.5  2976
   11870.5  447137  15193.5  4095
   11871.4  446014  18984.5  5182
   11872.6  446073  22381.5  6230
   11873.5  446170  22900.5  6481
   11874.4  446170  22390.5  6460
   11875.4  445925  21710.5  6426
   11876.6  446090  21455.5  6570
   11877.5  445700  21650.5  6736
   11878.4  445890  22027.5  6932
   11879.4  445153  22306.5  7074
   11880.6  445071  22649.5  7235
   11881.5  444214  22819.5  7302
   11882.4  444078  23001.5  7358.01
   11883.7  443573  23204.5  7421
   11884.6  443266  23355.5  7471
   11885.5  442627  23464.5  7516
   11886.4  442923  23639.5  7584
   11887.6  443037  23880.5  7663
   11888.6  443251  24077.5  7725
   11889.5  442492  24243.5  7772
   11890.4  442879  24476.5  7838
   11891.6  442423  24741.5  7926
   11892.6  442478  24969.5  8012
   11893.5  441663  25130.5  8089.99
   11894.4  442186  25369.5  8215
   11895.6  441490  25587.3  8341.76
   11896.9  441632  25831.3  8450.83
   11898.4  441419  26065.4  8517
   11899.7  441730  26238.4  8552.23
   11901.2  441957  26371.6  8583.54
   11903  442645  26478.7  8621.92
   11904.6  443366  26508.9  8655.39
   11906.4  443809  26447.1  8654.93
   11908.3  444463  26328.4  8628.55
   11910.1  445640  26155.7  8570.25
   11912.3  446895  25851  8444.03
   11914.2  448015  25551.3  8338.89
   11916.3  449869  25214.7  8254.81
   11918.8  450217  24783.1  8190.82
   11921  452937  24622.5  8192.91
   11923.4  454063  24422  8157.08
   11925.9  456341  24400.5  8160.32
   11928.4  458420  24460  8186.64
   11930.9  461026  24629.6  8212.05
   11933.7  463602  24967.2  8272.52
   11936.4  465193  25385.8  8366.07
   11939.2  468160  25945.4  8543.71
   11942.3  469209  26519.1  8768.42
   11945.1  474465  27281.8  9051.2
   11948.2  477831  27919.5  9300.06
   11951.3  481016  28444.3  9505.01
   11954.8  484988  28892.1  9701.03
   11957.9  488154  29138  9827.12
   11961.3  491291  29280.8  9876.29
   11964.7  495501  29418.7  9914.54
   11968.5  499148  29453.7  9979.89
   11971.9  503028  29486.6  10109.3
   11975.6  507664  29540.6  10211.8
   11979.4  511856  29567.7  10262.3
   11983.1  515243  29567.7  10268
   11987.2  518337  29558.8  10229.7
   11991.3  525519  29827.9  10258.5
   11995.3  528589  29974.1  10232.4
   11999.4  534104  30382.2  10341.3
   12003.5  539240  30903.4  10554.4
   12007.9  543179  31513.7  10816.5
   12012.3  547793  32260  11129.6
   12016.7  555498  33203.2  11526.9
   12021.1  559936  33889.6  11829.2
   12025.8  566321  34571  12144.7
   12030.5  571786  35032.3  12376.2
   12035.3  576806  35371.8  12555.7
   12040  582227  35677.2  12718.4
   12045  587226  35865.7  12835.1
   12050.1  593686  36116.2  12974.9
   12055.2  597527  36226.8  13003.8
   12060.2  606771  36678.4  13147.8
   12065.3  612918  37003  13312.8
   12070.7  619795  37412.6  13487.9
   12076.1  625896  37849.3  13625.1
   12081.5  632376  38393  13789.4
   12086.9  639748  39052.8  14023.7
   12092.6  646288  39710.5  14323.2
   12098.3  652750  40380.3  14671.7
   12104.1  659227  41094.1  15032.2
   12109.8  665424  41790  15387.9
   12115.9  673439  42593.9  15805.6
   12121.6  680535  43293.8  16181.5
   12127.7  687007  43914.8  16507.4
   12133.8  693965  44511.7  16790.3
   12140.2  701747  45123.8  17031.4
   12146.3  708336  45599.8  17200.5
   12152.8  715633  46091.9  17392.7
   12159.2  722339  46526  17587
   12165.6  728723  46978.2  17808.4
   12172.4  737718  47636.3  18122.8
   12178.9  744965  48232.5  18427.3
   12185.7  753165  48975.7  18750.9
   12192.5  761167  49757  19136.6
   12199.6  768548  50565.3  19556.3
   12206.4  776058  51378.6  19959.1
   12213.5  784969  52297  20436.1
   12220.7  792693  53123.4  20899
   12227.8  799999  53892.8  21339.1
   12235  808153  54720.2  21759.2
   12242.5  814089  55359.7  22123.4
   12250  824352  56295.2  22543.7
   12257.5  832045  57035.8  22862.1
   12265.1  838217  57681.4  23179.6
   12272.6  848737  58605  23608.1
   12280.5  855747  59303.6  23971.7
   12288.4  865169  60160.3  24427.4
   12296.3  872318  60859  24837.1
   12304.2  881280  61699.7  25321
   12312.1  890045  62566.5  25793.9
   12320.4  897824  63415.3  26291.9
   12328.7  905842  64299.1  26799.9
   12336.6  913270  65178.9  27296.1
   12345.2  920771  66106.8  27845.3
   12353.5  931031  67249.7  28441.6
   12362.2  937518  68135.6  28940
   12370.5  945832  69135.7  29499.4
   12379.2  953692  70061.7  30023
   12387.9  961397  70977.7  30529.6
   12396.9  971199  72019.7  31092.3
   12405.6  979716  72949.8  31608
   12414.7  988248  73904  32143.9
   12423.8  994640  74699.2  32657.8
   12432.8  1.00301e+06  75663.3  33231.8
   12441.9  1.01094e+06  76626.5  33855.9
   12451.4  1.01761e+06  77501.8  34443
   12460.5  1.02489e+06  78457.2  35053.3
   12470  1.03412e+06  79576.5  35749.6
   12479.5  1.03982e+06  80461.8  36336
   12489  1.04816e+06  81544.1  36996.4
   12498.9  1.05638e+06  82651.6  37682
   12508.4  1.06287e+06  83625  38301.6
   12518.3  1.07121e+06  84747.5  39005.3
   12528.2  1.07761e+06  85755  39639.1
   12538.1  1.08386e+06  86722.6  40275
   12548.1  1.09189e+06  87824.1  40985.9
   12558.4  1.0985e+06  88828.7  41653.9
   12568.7  1.10693e+06  89943.4  42411
   12578.7  1.11295e+06  90869  43073.2
   12589.1  1.12092e+06  91980.7  43827.4
   12599.4  1.12811e+06  93024.4  44579.7
   12610.2  1.13503e+06  94074.1  45353.1
   12620.6  1.14341e+06  95289.9  46178.6
   12631.3  1.14974e+06  96382.7  46964.1
   12642.1  1.15657e+06  97530.6  47758.8
   12652.9  1.16189e+06  98560.5  48530.5
   12663.8  1.16816e+06  99632.3  49295.3
   12674.6  1.17505e+06  100794  50130.2
   12685.8  1.1816e+06  101965  50978.1
   12696.7  1.18925e+06  103169  51832.1
   12708  1.19464e+06  104216  52669.2
   12719.3  1.20169e+06  105373  53532.4
   12730.6  1.20554e+06  106285  54285.6
   12741.9  1.21063e+06  107285  55111
   12753.6  1.21753e+06  108456  56053.4
   12764.9  1.22403e+06  109628  56978.9
   12776.7  1.22856e+06  110637  57833.4
   12788.4  1.23549e+06  111907  58819.1
   12800.2  1.24237e+06  113186  59810.8
   12812  1.24818e+06  114370  60761.6
   12824.2  1.252e+06  115401  61653.5
   12836  1.25825e+06  116676  62654.4
   12848.2  1.26259e+06  117753  63586.5
   12860.5  1.26585e+06  118758  64494.5
   12872.4  1.27181e+06  119992  65505.7
   12885.1  1.27409e+06  120926  66410

File: ass_100K_scan3.xdi
# XDI/1.0
# Column.1: energy eV
# Column.2: i0
# Column.3: itrans
# Column.4: irefer
# Beamline.name: SSRL 2-3
# Beamline.notes: vert slits = 0.6mm
# Detector.I0: N2 15cm
# Detector.I1: Ar 30cm
# Detector.I2: Ar 15cm
# Element.edge: K
# Element.symbol: As
# Mono.d_spacing: 3.13550
# Mono.name: Si(111)
# Mono.notes: unfocused, detuned 75%, clockwise at E=12000eV
# Sample.formula: AsS
# Sample.name: AsS (realgar)
# Sample.prep: powder on tape (5 layers)
# Sample.reference: GaAs powder
# Sample.temperature: 100K
# Scan.start_time: 1997-04-20 00:46:37
# ///
#    Note: mono d_spacing is nominal!
#     exafs to K16, GaAs in IR
#     413  E XMU XMUR I0
#-------------
#   energy   i0   itrans  irefer
   11634.9  499361  71714.5  29243
   11654.9  494904  71684.5  29588
   11675.1  489943  71563.5  29889
   11695  484297  71341.5  30140
   11714.9  480412  71342.5  30493
   11735  475508  71179.5  30783
   11755.1  470283  70969.5  31037
   11775  465979  70856.5  31342
   11794.9  461395  70651.5  31600
   11814.9  456898  70374.5  31808
   11835  451678  69680.5  31801
   11845.4  449560  68888.5  31532
   11846.6  449139  68733.5  31460
   11847.5  448942  68609.5  31404
   11848.4  448075  68359.5  31285
   11849.6  447453  68101.5  31157
   11850.6  447647  67979.5  31092
   11851.5  447744  67805.5  31001
   11852.4  447867  67620.5  30899
   11853.6  448203  67321.5  30740
   11854.5  447627  66868.5  30503
   11855.4  447020  66415.5  30262
   11856.4  446857  65868.5  29970
   11857.6  446750  64954.5  29469
   11858.5  446530  64076.5  28981
   11859.4  446673  62950.5  28349
   11860.6  446279  60590.5  27056
   11861.6  446366  58162.5  25722
   11862.5  445233  54298.5  23648
   11863.4  445149  48818.5  20771
   11864.6  444554  37480.5  15151
   11865.5  445133  26853.5  10252
   11866.5  444657  17629.5  6261
   11867.4  445200  10705.5  3377
   11868.6  444372  8890.5  2426
   11869.5  444651  11353.5  3034
   11870.5  443607  15381.5  4148
   11871.4  443476  19139.5  5226
   11872.6  442567  22313.5  6212
   11873.5  443187  22723.5  6435
   11874.4  442852  22165.5  6406
   11875.4  443155  21550.5  6397
   11876.6  442507  21293.5  6522
   11877.5  442695  21535.5  6706
   11878.4  441861  21862.5  6882
   11879.4  442238  22192.5  7037
   11880.6  441670  22500.5  7185
   11881.5  441522  22701.5  7261
   11882.4  441166  22865.5  7313
   11883.7  440199  23046.5  7366
   11884.6  440026  23194.5  7416.01
   11885.5  439873  23338.5  7469
   11886.4  439588  23479.5  7528
   11887.6  440348  23749.5  7621
   11888.6  439893  23908.5  7670
   11889.5  439866  24118.5  7734
   11890.4  439677  24319.5  7789.99
   11891.6  439322  24588.5  7875
   11892.6  438946  24791.5  7960
   11893.5  439262  25003.5  8051
   11894.4  438735  25185.5  8159
   11895.6  438834  25449.3  8299.76
   11896.9  438434  25652.3  8393.84
   11898.4  438360  25894.4  8458.99
   11899.7  438634  26060.4  8490.22
   11901.2  439001  26202.6  8525.54
   11903  439432  26288.7  8563.93
   11904.6  439791  26289.9  8578.39
   11906.4  440164  26231.1  8578.94
   11908.3  441437  26147.4  8570.55
   11910.1  442246  25948.6  8501.25
   11912.3  444203  25684  8392.03
   11914.2  445329  25378.3  8285.88
   11916.3  446755  25028.7  8196.82
   11918.8  447842  24644.1  8149.82
   11921  450115  24459.5  8140.92
   11923.4  451583  24281  8106.07
   11925.9  454059  24269.5  8120.32
   11928.4  456491  24356  8140.64
   11930.9  457982  24467.6  8155.04
   11933.7  461252  24837.1  8231.52
   11936.4  462941  25252.8  8321.07
   11939.2  465173  25782.4  8491.7
   11942.3  467008  26395.1  8730.41
   11945.1  471710  27126.8  8996.21
   11948.2  475478  27784.6  9252.06
   11951.3  478563  28298.3  9455
   11954.8  481493  28675.1  9622.02
   11957.9  485213  28960  9761.13
   11961.3  488431  29106.9  9807.3
   11964.7  492631  29238.7  9848.55
   11968.5  496593  29291.7  9921.88
   11971.9  499399  29270.6  10027.3
   11975.6  504353  29335.6  10145.8
   11979.4  508323  29360.7  10181.3
   11983.1  512062  29378.7  10198
   11987.2  515237  29369.8  10159.7
   11991.3  522478  29653.9  10191.5
   11995.3  525730  29802.1  10169.4
   11999.4  530936  30193.2  10270.3
   12003.5  535582  30690.4  10476.3
   12007.9  540135  31323.7  10745.5
   12012.3  544709  32067  11059.6
   12016.7  551011  32927.2  11424.9
   12021.1  557603  33733.6  11772.3
   12025.8  562956  34356  12067.7
   12030.5  568058  34803.3  12288.1
   12035.3  572497  35096.8  12452.7
   12040  578960  35466.2  12632.4
   12045  584762  35705.7  12779.1
   12050.1  590892  35942.2  12912.9
   12055.2  594172  36007.8  12923.8
   12060.2  602628  36423.4  13058.8
   12065.3  609075  36754  13224.8
   12070.7  615446  37146.6  13394.9
   12076.1  621973  37613.3  13537.1
   12081.5  628218  38142  13695.4
   12086.9  635358  38783.7  13919.7
   12092.6  642014  39436.5  14218.2
   12098.3  647481  40054.3  14554.7
   12104.1  654494  40783.1  14916.3
   12109.8  660599  41475  15269.9
   12115.9  668977  42303.9  15683.6
   12121.6  676122  43001.8  16057.5
   12127.7  682614  43630.8  16399.4
   12133.8  690045  44263.8  16683.3
   12140.2  697247  44823.8  16909.4
   12146.3  704358  45335.8  17091.5
   12152.8  711820  45832.9  17283.7
   12159.2  718582  46274  17480
   12165.6  724699  46691.1  17695.4
   12172.4  733580  47360.3  18013.8
   12178.9  741135  47976.5  18324.3
   12185.7  749225  48709.7  18652.9
   12192.5  756370  49442  19014.6
   12199.6  764348  50270.3  19431.3
   12206.4  772254  51120.7  19850.2
   12213.5  779678  51939  20280.1
   12220.7  788309  52810.4  20776
   12227.8  795670  53593.8  21208.1
   12235  803877  54397.2  21624.2
   12242.5  810310  55083.7  22001.4
   12250  819588  55953.2  22401.7
   12257.5  827651  56713.8  22732.1
   12265.1  835227  57448.4  23074.6
   12272.6  843733  58241.9  23469.1
   12280.5  852346  59040.6  23863.7
   12288.4  859514  59748.2  24261.3
   12296.3  868728  60586.9  24716.1
   12304.2  876199  61335.7  25162
   12312.1  885611  62243.5  25666.9
   12320.4  892666  63040.2  26127.9
   12328.7  901245  63966.1  26652.9
   12336.6  909892  64924.9  27195.1
   12345.2  917776  65890.8  27751.3
   12353.5  926249  66888.7  28290.6
   12362.2  934354  67874.7  28835
   12370.5  941604  68798.7  29363.5
   12379.2  948786  69692.7  29875
   12387.9  957326  70650.7  30389.6
   12396.9  965363  71569.8  30902.3
   12405.6  974293  72523.8  31434
   12414.7  981412  73349  31925.9
   12423.8  989129  74255.1  32480.8
   12432.8  1.00033e+06  75413.3  33153.8
   12441.9  1.00743e+06  76306.6  33729.9
   12451.4  1.01525e+06  77292.9  34364.1
   12460.5  1.02327e+06  78300.1  34993.3
   12470  1.03246e+06  79435.5  35693.6
   12479.5  1.0398e+06  80432.8  36339
   12489  1.0455e+06  81304.1  36895.4
   12498.9  1.05417e+06  82444.6  37588
   12508.4  1.06259e+06  83566  38264.6
   12518.3  1.07007e+06  84646.5  38950.3
   12528.2  1.07536e+06  85530  39551.1
   12538.1  1.08318e+06  86641.5  40258
   12548.1  1.09084e+06  87719.1  40940.9
   12558.4  1.09885e+06  88828.7  41665.9
   12568.7  1.10583e+06  89831.3  42366
   12578.7  1.11367e+06  90914  43078.2
   12589.1  1.11957e+06  91835.6  43755.4
   12599.4  1.12607e+06  92826.4  44474.7
   12610.2  1.13129e+06  93748.1  45175.1
   12620.6  1.13835e+06  94849.9  45972.6
   12631.3  1.14653e+06  96078.8  46842.1
   12642.1  1.15284e+06  97184.6  47608.8
   12652.9  1.157e+06  98136.4  48317.5
   12663.8  1.16348e+06  99229.3  49103.3
   12674.6  1.17244e+06  100564  50019.1
   12685.8  1.17883e+06  101696  50867.1
   12696.7  1.18529e+06  102809  51678.1
   12708  1.1924e+06  103986  52537.2
   12719.3  1.19738e+06  105010  53353.4
   12730.6  1.20481e+06  106198  54238.6
   12741.9  1.20978e+06  107182  55055
   12753.6  1.2161e+06  108351  55976.4
   12764.9  1.22054e+06  109314  56794.9
   12776.7  1.22651e+06  110475  57703.4
   12788.4  1.23157e+06  111552  58611.1
   12800.2  1.23724e+06  112704  59566.8
   12812  1.24282e+06  113879  60507.6
   12824.2  1.24808e+06  115024  61455.5
   12836  1.25333e+06  116195  62423.4
   12848.2  1.25936e+06  117451  63431.4
   12860.5  1.26318e+06  118489  64358.6
   12872.4  1.26923e+06  119743  65387.7
   12885.1  1.2726e+06  120760  66338

File: gaas_roomt_01.xdi
# XDI/1.0
# Column.1: energy eV
# Column.2: i0
# Column.3: itrans
# Column.4: irefer
# Beamline.name: SSRL 4-1
# Detector.I0: N2 15cm
# Detector.I1: N2 30cm
# Detector.I2: Ar 15cm
# Element.edge: K
# Element.symbol: As
# Mono.d_spacing: 3.13550
# Mono.name: Si(111)
# Mono.notes: unfocused, detuned 40%,counter clockwise at E=12000eV
# Sample.formula: GaAs
# Sample.name: GaAs gallium arsenide
# Sample.prep: powder
# Sample.reference: none
# Sample.temperature: room temperature
# Scan.start_time: 1997-01-19 14:12:16
# ///
#    Note: mono d_spacing is nominal!
#     exafs to K15
#     same as calibration scan used in as001c_1.xmu,
#     similar scans can be found in many other scans
#     320  E XMUR XMU I0
#-------------
#   energy   i0   itrans  irefer
   11650  179062  207601  325987
   11670  178040  207532  327517
   11690  176917  207352  328855
   11710  175015  206215  328694
   11730  174715  206957  331531
   11750  174308  207548  334136
   11770  173368  207548  335699
   11790  172098  207062  336516
   11810  171212  207024  337854
   11830  169899  206281  337682
   11850  168960  205196  334878
   11851.5  167889  203765  332086
   11853  169457  205459  334396
   11854.5  168709  204292  331752
   11856.1  167594  202554  327968
   11857.6  167596  202052  325972
   11859.1  168226  201950  323924
   11860.6  167509  199768  317823
   11862.1  167890  197913  311022
   11863.6  167567  192268  295331
   11865.2  167960  181316  267023
   11866.7  167393  161937  216631
   11868.2  167879  142070  156329
   11869.7  168294  126354  108526
   11871.2  167908  123414  89094.9
   11872.7  167263  124881  94140.9
   11874.2  167382  128101  112717
   11875.8  166906  131879  128925
   11877.3  167107  135809  140853
   11878.8  166608  138871  146185
   11880.3  166590  140932  145179
   11881.8  166363  141947  142985
   11883.3  166587  142596  143780
   11884.8  166934  142824  146620
   11886.4  165962  142062  148497
   11887.9  166466  142642  151543
   11889.4  166536  142657  154092
   11890.9  166634  142563  156951
   11892.4  166471  142379  159259
   11893.9  166748  143028  162221
   11895.5  166283  143449  164014
   11897  165623  143657  164638
   11898.5  166049  144334  165699
   11900  165944  144007  165755
   11902.6  166518  144026  166827
   11905.2  166510  144188  168146
   11908  166698  144697  169210
   11910.8  165792  143889  167294
   11913.6  166308  143914  165296
   11916.6  166188  143707  163551
   11919.6  166581  145196  164364
   11922.7  166152  145985  164001
   11925.9  167263  147383  163841
   11929.2  167541  147624  162879
   11932.5  168167  147563  162138
   11936  169828  147904  162207
   11939.4  170929  148028  162234
   11943  171611  148834  162708
   11946.7  171936  149618  163679
   11950.4  172056  150201  165392
   11954.2  173243  151680  168234
   11958.1  174509  153485  171110
   11962  175792  154839  173532
   11966  176348  155076  174559
   11970.2  177847  156916  177355
   11974.3  179294  159930  181420
   11978.6  180660  162436  184989
   11982.9  183025  164833  188725
   11987.3  183605  165084  189844
   11991.8  184918  165202  190438
   11996.4  186054  164771  190173
   12001  187631  165150  190401
   12005.8  190032  167484  192554
   12010.6  192091  169986  194772
   12015.4  194472  172932  197695
   12020.4  196205  175350  200141
   12025.4  197524  177510  202452
   12030.5  199113  179817  205071
   12035.7  202512  183597  209537
   12040.9  204408  186006  212810
   12046.3  206721  188664  216615
   12051.7  209380  191646  220905
   12057.2  210832  192631  222872
   12062.7  213584  194691  225824
   12068.4  216364  197654  229646
   12074.1  218493  199559  232219
   12079.9  220552  200654  234093
   12085.7  223846  203039  237550
   12091.7  226458  205400  240899
   12097.7  228666  208491  244969
   12103.8  231451  212295  249999
   12110  234259  215886  254952
   12116.2  236446  219188  259624
   12122.6  239990  223844  265694
   12129  242479  227339  270210
   12135.4  245148  230289  273934
   12142  247777  232453  276453
   12148.6  251610  235619  280042
   12155.4  255519  239063  284114
   12162.1  256838  240367  286101
   12169  262168  245779  293367
   12175.9  264359  248486  297713
   12183  266539  250918  301880
   12190  272348  256763  310041
   12197.2  275376  260522  315486
   12204.5  277885  263676  319959
   12211.8  282984  269507  327534
   12219.2  284971  272787  331908
   12226.7  288764  277794  338494
   12234.2  292358  282245  344611
   12241.9  296853  287406  351911
   12249.6  299138  289899  356201
   12257.3  303001  293398  361746
   12265.2  306697  297068  367541
   12273.1  311364  302046  374629
   12281.1  315691  306639  381093
   12289.2  317593  309302  384902
   12297.4  323041  315700  393276
   12305.6  326094  319752  398763
   12314  330149  324766  405673
   12322.4  333044  328758  411534
   12330.8  338324  335136  420712
   12339.4  342828  340860  429303
   12348  346067  345058  436132
   12356.7  350692  351076  444808
   12365.5  354249  354637  451094
   12374.3  358283  359777  458738
   12383.3  363921  366098  467765
   12392.3  365219  368030  471134
   12401.4  369750  373302  478897
   12410.5  373037  377466  485391
   12419.8  380071  385576  497254
   12429.1  384159  390944  505754
   12438.5  389422  397618  516042
   12447.9  391246  400975  522032
   12457.5  396919  408174  532867
   12467.1  401675  414392  542317
   12476.8  405355  419578  550224
   12486.6  409501  424986  558404
   12496.4  415296  432022  568868
   12506.4  420044  438027  578044
   12516.4  421059  440208  582474
   12526.4  427538  448169  594813
   12536.6  431218  453175  603374
   12546.8  435268  458637  612588
   12557.1  441638  466646  625250
   12567.5  444134  470656  632425
   12578  449688  477972  643997
   12588.5  453786  483931  653638
   12599.2  460001  492209  666513
   12609.9  462971  497064  674958
   12620.6  468083  504218  686512
   12631.5  471629  509595  695918
   12642.4  475320  515089  705547
   12653.4  482764  524640  720857
   12664.5  484768  528228  727998
   12675.6  489931  535340  739869
   12686.8  494418  541808  750807
   12698.1  497573  546898  759847
   12709.5  502543  554045  771750
   12715.2  505292  557902  778155