Folder: XASDataLibrary/data/As (part 3)

File: as2o5_roomt_scan1.xdi
# XDI/1.0
# Column.1: energy eV
# Column.2: i0
# Column.3: itrans
# Column.4: irefer
# Beamline.name: SSRL 4-1
# Detector.I0: N2 15cm
# Detector.I1: N2 30cm
# Detector.I2: Ar 15cm
# Element.edge: K
# Element.symbol: As
# Mono.d_spacing: 3.13550
# Mono.name: Si(111)
# Mono.notes: unfocused, detuned 40%,counter clockwise at E=12000eV
# Sample.formula: As2O5
# Sample.name: As2O5 arsenic (V) oxide
# Sample.prep: powder, mixed 1:60 with B(OH)3 by wt
# Sample.reference: GaAs powder
# Sample.temperature: room temperature
# Scan.start_time: 1997-01-19 14:49:01
# ///
#    Note: mono d_spacing is nominal!
#     exafs to K15, GaAs in IR
#     320  E XMU XMUR I0
#-------------
#   energy   i0   itrans  irefer
   11650  172917  294631  342307
   11670  171674  293854  343250
   11690  171030  294143  345424
   11710  169837  293414  346421
   11730  169481  294127  349126
   11750  167856  292654  349214
   11770  167669  293619  352193
   11790  165943  291874  351898
   11810  165653  292541  354448
   11830  164561  291532  354679
   11850  163691  289754  352554
   11851.5  162794  287982  350147
   11853  163062  288232  350110
   11854.5  162784  287439  348656
   11856.1  162973  287388  347864
   11857.6  162470  285991  345273
   11859.1  162655  285572  343144
   11860.6  162674  284666  339575
   11862.1  162684  283423  333671
   11863.6  162566  281186  320676
   11865.2  162774  278582  295215
   11866.7  162443  272857  254923
   11868.2  163567  265276  215218
   11869.7  162004  244020  178884
   11871.2  161984  208102  149000
   11872.7  161786  163894  118626
   11874.2  161942  128795  98147
   11875.8  161281  125557  101416
   11877.3  162006  149468  123875
   11878.8  161807  174342  146772
   11880.3  161459  181584  154445
   11881.8  161637  181593  155376
   11883.3  161903  181025  155279
   11884.8  161258  180325  154573
   11886.4  161846  180433  154704
   11887.9  161944  179551  154118
   11889.4  161259  178728  153472
   11890.9  161567  181460  155705
   11892.4  161352  185209  158918
   11893.9  161597  189885  163462
   11895.5  161376  193279  167386
   11897  160970  195036  169723
   11898.5  161112  196846  171548
   11900  161075  198260  172472
   11902.6  161362  202259  175420
   11905.2  161142  206574  179444
   11908  161826  212306  184852
   11910.8  161284  214977  187063
   11913.6  161554  215673  187046
   11916.6  161570  213327  184936
   11919.6  162171  210382  183856
   11922.7  162027  206740  182123
   11925.9  162803  205703  181715
   11929.2  163464  205920  181868
   11932.5  164328  206467  181525
   11936  164550  204856  178715
   11939.4  165431  203335  176469
   11943  166199  202158  175771
   11946.7  167289  202994  177105
   11950.4  168657  205361  179719
   11954.2  168453  205370  180259
   11958.1  169432  206185  181807
   11962  170100  206794  182572
   11966  171458  209155  184387
   11970.2  172631  211908  187506
   11974.3  175159  216216  193444
   11978.6  175184  217534  196097
   11982.9  177006  221888  200318
   11987.3  178338  225643  203318
   11991.8  180764  229813  205709
   11996.4  182360  232376  206207
   12001  183046  233945  206402
   12005.8  184432  236571  209053
   12010.6  186916  240341  213226
   12015.4  188054  241926  215685
   12020.4  191139  245764  220175
   12025.4  193060  247982  223427
   12030.5  194380  249214  225613
   12035.7  196313  250993  228108
   12040.9  198798  253408  231139
   12046.3  200535  255342  233586
   12051.7  203214  258769  237390
   12057.2  205070  261293  239246
   12062.7  207311  264604  241722
   12068.4  209669  268087  245501
   12074.1  212285  271990  248965
   12079.9  214346  275298  251021
   12085.7  217886  280553  255060
   12091.7  220248  284474  258675
   12097.7  221894  287344  262616
   12103.8  224502  291287  267800
   12110  227456  295957  273406
   12116.2  231192  301801  280457
   12122.6  233212  305396  285499
   12129  236442  310385  291644
   12135.4  239223  314803  296367
   12142  241034  318033  299005
   12148.6  243810  322246  302410
   12155.4  248267  328728  308193
   12162.1  250531  332309  311692
   12169  254239  337680  317274
   12175.9  257023  341741  321916
   12183  260979  347289  327632
   12190  263798  351156  331786
   12197.2  267845  356937  338405
   12204.5  270195  360713  342987
   12211.8  274518  367385  350649
   12219.2  276529  370944  355860
   12226.7  281222  378052  364483
   12234.2  285961  385309  372774
   12241.9  288476  389621  378002
   12249.6  292143  395409  383968
   12257.3  294584  399626  387713
   12265.2  299128  406955  395024
   12273.1  302767  412995  401458
   12281.1  305766  418256  407123
   12289.2  310026  425255  415031
   12297.4  314609  432660  423728
   12305.6  317480  437630  430027
   12314  322358  445372  439041
   12322.4  326372  451928  447007
   12330.8  329480  457324  453910
   12339.4  333510  463960  462165
   12348  336369  468477  468944
   12356.7  342181  477849  478335
   12365.5  345058  482873  484466
   12374.3  349452  489989  493011
   12383.3  354128  497517  501483
   12392.3  357673  503656  508489
   12401.4  361385  510099  515994
   12410.5  365443  517055  524172
   12419.8  369220  523717  532316
   12429.1  374385  532363  542802
   12438.5  378883  540103  552530
   12447.9  381954  545955  560588
   12457.5  385863  553018  569765
   12467.1  393254  565186  584209
   12476.8  396057  570788  591860
   12486.6  399587  577368  600267
   12496.4  403926  585121  609821
   12506.4  407539  591854  618262
   12516.4  411977  599749  628155
   12526.4  417271  609033  639615
   12536.6  421745  617135  649703
   12546.8  424125  622098  656672
   12557.1  430089  632428  669363
   12567.5  434298  640129  679518
   12578  440497  650768  692928
   12588.5  441706  654166  698726
   12599.2  447688  664639  712373
   12609.9  450465  670536  721139
   12620.6  455899  680401  734138
   12631.5  460308  688780  745444
   12642.4  463947  696037  755512
   12653.4  469467  706274  768696
   12664.5  473130  713641  778867
   12675.6  477422  722092  790265
   12686.8  482086  731271  802623
   12698.1  484718  737363  811746
   12709.5  490385  748017  825972
   12715.2  494335  755070  835038

File: as2o5_roomt_scan2.xdi
# XDI/1.0
# Column.1: energy eV
# Column.2: i0
# Column.3: itrans
# Column.4: irefer
# Beamline.name: SSRL 4-1
# Detector.I0: N2 15cm
# Detector.I1: N2 30cm
# Detector.I2: Ar 15cm
# Element.edge: K
# Element.symbol: As
# Mono.d_spacing: 3.13550
# Mono.name: Si(111)
# Mono.notes: unfocused, detuned 40%,counter clockwise at E=12000eV
# Sample.formula: As2O5
# Sample.name: As2O5 arsenic (V) oxide
# Sample.prep: powder, mixed 1:60 with B(OH)3 by wt
# Sample.reference: GaAs powder
# Sample.temperature: room temperature
# Scan.start_time: 1997-01-19 14:49:01
# ///
#    Note: mono d_spacing is nominal!
#     exafs to K15, GaAs in IR
#     320  E XMU XMUR I0
#-------------
#   energy   i0   itrans  irefer
   11650  173291  295721  343605
   11670  172779  296177  346019
   11690  171637  295579  347186
   11710  171129  296093  349587
   11730  169756  295019  350234
   11750  168481  294144  351035
   11770  167704  294054  352794
   11790  166572  293347  353746
   11810  166393  294204  356522
   11830  164737  292161  355523
   11850  164015  290639  353677
   11851.5  163550  289621  352160
   11853  163723  289728  351941
   11854.5  163577  289086  350695
   11856.1  163788  289057  349917
   11857.6  162872  286936  346390
   11859.1  163116  286611  344356
   11860.6  162488  284543  339298
   11862.1  163653  285278  335532
   11863.6  162989  282050  320756
   11865.2  163754  280295  295276
   11866.7  163204  273972  253863
   11868.2  164312  265757  213755
   11869.7  163014  244026  178333
   11871.2  162875  206301  147757
   11872.7  163239  162531  117916
   11874.2  163330  128637  98465.9
   11875.8  162690  127566  103355
   11877.3  162334  151623  125863
   11878.8  162064  175477  147910
   11880.3  162230  182570  155413
   11881.8  162049  181999  155821
   11883.3  162016  181135  155427
   11884.8  162025  181143  155355
   11886.4  162368  180952  155231
   11887.9  161365  178828  153574
   11889.4  161635  179192  153920
   11890.9  162106  182263  156393
   11892.4  162905  187250  160676
   11893.9  161584  190116  163775
   11895.5  160603  192555  166866
   11897  161066  195263  170013
   11898.5  161682  197586  172258
   11900  161331  198627  172841
   11902.6  160967  201857  175133
   11905.2  161228  206754  179693
   11908  162045  212658  185248
   11910.8  161801  215695  187756
   11913.6  161551  215682  187097
   11916.6  162611  214634  186157
   11919.6  162525  210768  184281
   11922.7  162460  207232  182628
   11925.9  162519  205306  181433
   11929.2  163745  206246  182210
   11932.5  164352  206482  181557
   11936  164662  204853  178750
   11939.4  165095  202780  176065
   11943  166585  202545  176200
   11946.7  166801  202361  176655
   11950.4  167830  204306  178905
   11954.2  168675  205568  180538
   11958.1  169617  206317  182041
   11962  170612  207351  183138
   11966  170376  207821  183262
   11970.2  172282  211461  187218
   11974.3  174016  214765  192277
   11978.6  175842  218322  196904
   11982.9  177382  222334  200810
   11987.3  178708  226097  203795
   11991.8  180143  228951  204982
   11996.4  181510  231225  205221
   12001  183114  233989  206507
   12005.8  185307  237628  210092
   12010.6  186115  239226  212341
   12015.4  188719  242673  216476
   12020.4  191073  245586  220118
   12025.4  191799  246276  221991
   12030.5  193986  248607  225154
   12035.7  196405  250999  228208
   12040.9  198328  252715  230583
   12046.3  200757  255525  233827
   12051.7  203404  258901  237599
   12057.2  206138  262549  240459
   12062.7  207880  265189  242350
   12068.4  210124  268552  246020
   12074.1  211794  271225  248341
   12079.9  215350  276474  252167
   12085.7  216993  279239  253971
   12091.7  219057  282840  257260
   12097.7  221723  286992  262416
   12103.8  224518  291145  267816
   12110  227043  295315  272917
   12116.2  230554  300824  279667
   12122.6  232145  303850  284173
   12129  236209  309955  291323
   12135.4  239652  315230  296860
   12142  241774  318819  299843
   12148.6  245791  324674  304815
   12155.4  247891  328022  307665
   12162.1  250487  332102  311598
   12169  254073  337301  317028
   12175.9  256589  340974  321292
   12183  259592  345267  325820
   12190  263151  350073  330911
   12197.2  267632  356388  338003
   12204.5  270036  360251  342695
   12211.8  273972  366442  349880
   12219.2  277185  371611  356633
   12226.7  280547  376904  363525
   12234.2  283663  382055  369718
   12241.9  287166  387585  376181
   12249.6  290863  393457  382172
   12257.3  294582  399343  387574
   12265.2  298674  406118  394310
   12273.1  302490  412355  400981
   12281.1  304712  416550  405597
   12289.2  308592  423003  412969
   12297.4  313363  430730  421942
   12305.6  317310  437135  429680
   12314  321988  444599  438398
   12322.4  324337  448818  444066
   12330.8  327890  454806  451602
   12339.4  332044  461608  460012
   12348  337477  469715  470195
   12356.7  342603  478197  478683
   12365.5  347003  485274  487066
   12374.3  348794  488742  491922
   12383.3  353265  496041  500087
   12392.3  356829  502127  507109
   12401.4  360245  508190  514203
   12410.5  365480  516820  524082
   12419.8  368564  522464  531247
   12429.1  374450  532134  542721
   12438.5  375977  535696  548130
   12447.9  380906  544153  558870
   12457.5  385557  552215  569115
   12467.1  389747  559785  578787
   12476.8  392973  565948  587062
   12486.6  397848  574470  597450
   12496.4  402233  582309  607057
   12506.4  406938  590536  617145
   12516.4  410523  597285  625718
   12526.4  415425  605956  636562
   12536.6  418426  611881  644376
   12546.8  423827  621288  655988
   12557.1  430172  632133  669255
   12567.5  431290  635202  674507
   12578  438294  647088  689177
   12588.5  440266  651567  696150
   12599.2  445283  660614  708285
   12609.9  450588  670233  721051
   12620.6  453961  677025  730721
   12631.5  457557  684207  740736
   12642.4  462306  693272  752750
   12653.4  465557  699862  761982
   12664.5  470144  708692  773686
   12675.6  474290  716902  784799
   12686.8  480646  728586  799895
   12698.1  482598  733588  807848
   12709.5  489525  746162  824183
   12715.2  490275  748378  827845

File: as2o5_roomt_scan3.xdi
# XDI/1.0
# Column.1: energy eV
# Column.2: i0
# Column.3: itrans
# Column.4: irefer
# Beamline.name: SSRL 4-1
# Detector.I0: N2 15cm
# Detector.I1: N2 30cm
# Detector.I2: Ar 15cm
# Element.edge: K
# Element.symbol: As
# Mono.d_spacing: 3.13550
# Mono.name: Si(111)
# Mono.notes: unfocused, detuned 40%,counter clockwise at E=12000eV
# Sample.formula: As2O5
# Sample.name: As2O5 arsenic (V) oxide
# Sample.prep: powder, mixed 1:60 with B(OH)3 by wt
# Sample.reference: GaAs powder
# Sample.temperature: room temperature
# Scan.start_time: 1997-01-19 14:49:01
# ///
#    Note: mono d_spacing is nominal!
#     exafs to K15, GaAs in IR
#     320  E XMU XMUR I0
#-------------
#   energy   i0   itrans  irefer
   11650  171833  293054  340659
   11670  172054  294801  344504
   11690  170463  293413  344737
   11710  169794  293597  346783
   11730  168910  293416  348430
   11750  167865  292921  349685
   11770  166748  292254  350710
   11790  166709  293467  353926
   11810  164940  291502  353315
   11830  163961  290653  353759
   11850  163448  289474  352326
   11851.5  163176  288822  351238
   11853  163097  288436  350448
   11854.5  161999  286147  347165
   11856.1  162241  286180  346431
   11857.6  162497  286131  345413
   11859.1  162014  284486  341747
   11860.6  161800  283135  337442
   11862.1  162287  282615  332067
   11863.6  162800  281401  319071
   11865.2  162043  276897  289537
   11866.7  162466  272060  249745
   11868.2  162715  262028  208934
   11869.7  162067  240674  175397
   11871.2  161817  202079  144788
   11872.7  162330  158975  115562
   11874.2  162459  126801  97433
   11875.8  161215  127297  103409
   11877.3  160813  151967  126336
   11878.8  160612  174704  147413
   11880.3  161468  181673  154744
   11881.8  162210  181932  155833
   11883.3  162322  181284  155555
   11884.8  161203  180003  154421
   11886.4  161501  179696  154192
   11887.9  161224  178428  153286
   11889.4  161001  178380  153265
   11890.9  162053  182276  156407
   11892.4  161321  185515  159306
   11893.9  161441  190015  163781
   11895.5  160824  192774  167175
   11897  160605  194642  169548
   11898.5  160450  195980  170901
   11900  160700  197769  172113
   11902.6  160961  201756  175109
   11905.2  160998  206376  179426
   11908  160359  210388  183300
   11910.8  161107  214673  186908
   11913.6  160578  214167  185830
   11916.6  161513  212958  184767
   11919.6  161391  209066  182863
   11922.7  161636  205965  181573
   11925.9  161788  204180  180483
   11929.2  162671  204685  180880
   11932.5  163111  204721  180054
   11936  164298  204235  178245
   11939.4  164437  201767  175231
   11943  166148  201836  175623
   11946.7  166677  202018  176397
   11950.4  167835  204137  178798
   11954.2  168240  204869  179957
   11958.1  168594  204898  180831
   11962  169193  205435  181493
   11966  171330  208805  184174
   11970.2  171911  210831  186726
   11974.3  173370  213783  191472
   11978.6  174630  216649  195442
   11982.9  176224  220717  199401
   11987.3  177932  224914  202777
   11991.8  180208  228868  204921
   11996.4  181188  230629  204712
   12001  181678  231937  204748
   12005.8  184528  236457  209100
   12010.6  186489  239544  212671
   12015.4  187256  240613  214691
   12020.4  189336  243153  218000
   12025.4  191333  245456  221316
   12030.5  193386  247583  224311
   12035.7  195603  249733  227142
   12040.9  198928  253262  231135
   12046.3  199625  253853  232368
   12051.7  202306  257267  236155
   12057.2  203540  258982  237257
   12062.7  206072  262668  240091
   12068.4  208054  265642  243425
   12074.1  211700  270875  248083
   12079.9  213080  273320  249355
   12085.7  216173  277970  252865
   12091.7  218095  281373  255965
   12097.7  220616  285312  260937
   12103.8  223638  289752  266599
   12110  226145  293902  271661
   12116.2  229818  299608  278608
   12122.6  232544  304102  284480
   12129  234980  308040  289607
   12135.4  237359  311932  293819
   12142  240405  316727  297948
   12148.6  244156  322267  302575
   12155.4  247871  327772  307456
   12162.1  249546  330535  310202
   12169  253400  336091  315965
   12175.9  255172  338804  319307
   12183  258051  342879  323664
   12190  262759  349252  330192
   12197.2  266259  354222  336045
   12204.5  269343  359007  341612
   12211.8  272391  364015  347652
   12219.2  275670  369243  354448
   12226.7  278845  374370  361129
   12234.2  282922  380736  368521
   12241.9  286217  386005  374724
   12249.6  288718  390233  379120
   12257.3  293044  396982  385310
   12265.2  296791  403180  391587
   12273.1  299405  407864  396643
   12281.1  304339  415686  404862
   12289.2  307963  421840  411917
   12297.4  310995  427112  418504
   12305.6  315850  434777  427435
   12314  317871  438556  432539
   12322.4  322748  446248  441624
   12330.8  325993  451813  448699
   12339.4  331277  460152  458658
   12348  333334  463513  463993
   12356.7  339247  473104  473590
   12365.5  342072  477953  479874
   12374.3  345704  483954  487219
   12383.3  350193  491290  495435
   12392.3  354237  498048  503099
   12401.4  358336  505061  511173
   12410.5  363051  512939  520277
   12419.8  368267  521587  530480
   12429.1  370668  526304  536914
   12438.5  374529  533137  545677
   12447.9  377708  539097  553839
   12457.5  383163  548375  565195
   12467.1  387212  555683  574671
   12476.8  391808  563769  584949
   12486.6  395750  570942  593896
   12496.4  400694  579577  604313
   12506.4  405582  588083  614690
   12516.4  408021  593169  621533
   12526.4  412401  601040  631523
   12536.6  416583  608671  641152
   12546.8  421336  617123  651750
   12557.1  424953  623961  660712
   12567.5  430314  633298  672573
   12578  434174  640457  682256
   12588.5  438950  649094  693681
   12599.2  443933  658078  705727
   12609.9  445469  662091  712427
   12620.6  452845  674794  728501
   12631.5  454531  679115  735366
   12642.4  460289  689545  748837
   12653.4  463418  696096  758015
   12664.5  467877  704698  769487
   12675.6  473197  714726  782531
   12686.8  478717  725097  796192
   12698.1  479870  728915  802808
   12709.5  486533  741048  818680
   12715.2  487211  743079  822211