Folder: XASDataLibrary/data/As (part 5)

File: ass_10K_scan1.xdi
# XDI/1.0
# Column.1: energy eV
# Column.2: i0
# Column.3: itrans
# Column.4: irefer
# Beamline.name: SSRL 2-3
# Beamline.notes: vert slits = 0.6mm
# Detector.I0: N2 15cm
# Detector.I1: Ar 30cm
# Detector.I2: Ar 15cm
# Element.edge: K
# Element.symbol: As
# Mono.d_spacing: 3.13550
# Mono.name: Si(111)
# Mono.notes: unfocused, detuned 75%, clockwise at E=12000eV
# Sample.formula: AsS
# Sample.name: AsS (realgar)
# Sample.prep: powder on tape (5 layers)
# Sample.reference: GaAs powder
# Sample.temperature: 10K
# Scan.start_time: 1997-04-19 17:37:58
# ///
#    Note: mono d_spacing is nominal!
#     exafs to K16, GaAs in IR
#     413  E XMU XMUR I0
#-------------
#   energy   i0   itrans  irefer
   11634.9  555708  73435.5  30191
   11654.9  549917  73307.5  30496
   11675.1  545058  73297.5  30860
   11695  537898  72973.5  31076
   11714.9  532881  72907.5  31406
   11735  528032  72875.5  31753
   11755.1  522261  72689.5  32042
   11775  516675  72475.5  32311
   11794.9  511681  72323.5  32608
   11814.9  505708  71926.5  32780
   11835  500292  71321.5  32809
   11845.4  497938  70634.5  32598
   11846.6  496545  70344.5  32465
   11847.5  497408  70403.5  32501
   11848.4  496886  70244.5  32414
   11849.6  496077  69986.5  32304
   11850.6  495544  69795.5  32210
   11851.5  494989  69567.5  32095
   11852.4  495356  69451.5  32033
   11853.6  494736  69092.5  31856
   11854.5  495657  68949.5  31768
   11855.4  494717  68531.5  31562
   11856.4  494844  68193.5  31369
   11857.6  494473  67501.5  30992
   11858.5  494685  66978.5  30710
   11859.4  494081  66123.5  30227
   11860.6  493906  64653.5  29414
   11861.6  493078  63192.5  28620
   11862.5  493340  61124.5  27472
   11863.4  492541  58384.5  25975
   11864.6  491735  51804.5  22449
   11865.5  491127  44996.5  18952
   11866.5  491570  35523.5  14336
   11867.4  491689  25080.5  9560
   11868.6  491709  13222.5  4473
   11869.5  491541  9079.5  2695
   11870.5  491064  9152.5  2496
   11871.4  491214  12048.5  3246
   11872.6  489634  17894.5  4898
   11873.5  489478  21107.5  5859
   11874.4  489448  22655.5  6378
   11875.4  489799  22761.5  6523
   11876.6  489054  21811.5  6459
   11877.5  489898  21417.5  6502.99
   11878.4  489155  21398.5  6631
   11879.4  489320  21668.5  6814.99
   11880.6  488581  22141.5  7057
   11881.5  488631  22430.5  7197
   11882.4  488314  22643.5  7289.01
   11883.7  488091  22921.5  7391
   11884.6  487299  23078.5  7438
   11885.5  486758  23217.5  7480
   11886.4  486348  23351.5  7533
   11887.6  486233  23560.5  7613
   11888.6  486238  23715.5  7671
   11889.5  486377  23916.5  7733
   11890.4  486197  24104.5  7790
   11891.6  485909  24383.5  7870
   11892.6  485789  24618.5  7944
   11893.5  485427  24813.5  8012
   11894.4  485490  25043.5  8106
   11895.6  484439  25281.3  8244.77
   11896.9  485367  25609.3  8406.83
   11898.4  484435  25852.4  8520.99
   11899.7  485032  26082.4  8590.22
   11901.2  485298  26284.6  8628.53
   11903  486061  26458.7  8676.92
   11904.6  486655  26521.9  8708.39
   11906.4  486955  26502.1  8717.94
   11908.3  488320  26461.4  8728.55
   11910.1  488975  26306.6  8688.25
   11912.3  490405  26044.9  8587.03
   11914.2  491856  25779.3  8482.89
   11916.3  493729  25438.7  8368.82
   11918.8  494913  25007.1  8279.83
   11921  497157  24758.5  8268.92
   11923.4  499381  24547  8239.08
   11925.9  500874  24418.5  8217.33
   11928.4  503700  24454  8234.65
   11930.9  506010  24550.6  8256.04
   11933.7  508922  24801.1  8299.52
   11936.4  511500  25201.8  8378.07
   11939.2  514289  25720.4  8523.71
   11942.3  515781  26318.1  8749.42
   11945.1  519348  26968.8  8993.2
   11948.2  524871  27757.6  9291.07
   11951.3  528345  28332.3  9522.01
   11954.8  532369  28820.1  9721.03
   11957.9  534466  29053  9852.12
   11961.3  539786  29335.8  9960.3
   11964.7  543900  29462.7  9994.55
   11968.5  547397  29485.7  10036.9
   11971.9  552293  29568.6  10163.3
   11975.6  556593  29577.6  10278.8
   11979.4  561329  29610.6  10336.3
   11983.1  566056  29654.7  10371
   11987.2  567610  29536.8  10311.7
   11991.3  575861  29799.9  10345.5
   11995.3  580414  29961.1  10321.4
   11999.4  585352  30272.2  10382.3
   12003.5  589564  30674.4  10525.4
   12007.9  596040  31366.7  10819.5
   12012.3  598569  31955.9  11085.6
   12016.7  607608  32960.3  11498.9
   12021.1  614021  33772.6  11843.2
   12025.8  618827  34404  12146.7
   12030.5  624817  34902.4  12396.2
   12035.3  630778  35300.8  12598.7
   12040  636525  35605.2  12766.4
   12045  643204  35881.7  12915.1
   12050.1  648752  36034.2  13025.9
   12055.2  653682  36170.8  13082.8
   12060.2  662050  36521.4  13175.8
   12065.3  670143  36908  13353.8
   12070.7  676634  37249.6  13527.9
   12076.1  683778  37707.3  13667.1
   12081.5  691272  38262  13841.4
   12086.9  696561  38762.7  14007.7
   12092.6  703801  39407.5  14282.2
   12098.3  710633  40077.3  14636.7
   12104.1  718023  40798.2  15001.3
   12109.8  724745  41495  15344.9
   12115.9  732968  42285.9  15758.6
   12121.6  741006  43024.8  16150.5
   12127.7  747219  43608.8  16479.4
   12133.8  755130  44253.8  16780.3
   12140.2  763211  44853.8  17028.4
   12146.3  771235  45383.8  17220.5
   12152.8  780650  45961.9  17452.7
   12159.2  788552  46435  17652
   12165.6  795876  46903.1  17880.4
   12172.4  805010  47512.3  18178.8
   12178.9  812637  48095.5  18489.3
   12185.7  819459  48688.8  18754.9
   12192.5  828493  49510  19155.6
   12199.6  836788  50331.3  19561.3
   12206.4  845766  51204.6  20003.1
   12213.5  854179  52062  20448
   12220.7  862423  52882.4  20914
   12227.8  871176  53704.8  21382.1
   12235  880397  54530.3  21816.2
   12242.5  887864  55263.7  22212.4
   12250  893514  55860.2  22507.7
   12257.5  906189  56882.8  22937.1
   12265.1  913477  57568.4  23272.6
   12272.6  921596  58295.9  23642.1
   12280.5  930391  59066.6  24030.7
   12288.4  937986  59750.3  24410.4
   12296.3  947269  60559  24869.1
   12304.2  956102  61345.7  25324.9
   12312.1  964989  62179.4  25793.9
   12320.4  972223  62924.3  26250.9
   12328.7  981822  63899  26803.9
   12336.6  990101  64782.9  27310.1
   12345.2  999117  65771.8  27886.3
   12353.5  1.00697e+06  66692.7  28387.6
   12362.2  1.01694e+06  67776.7  28973
   12370.5  1.02477e+06  68710.6  29504.4
   12379.2  1.03287e+06  69614.6  30027
   12387.9  1.04208e+06  70580.7  30551.6
   12396.9  1.04814e+06  71336.8  30981.3
   12405.6  1.05884e+06  72369.8  31568
   12414.7  1.06643e+06  73184  32051.9
   12423.8  1.07427e+06  74049.1  32583.8
   12432.8  1.08381e+06  75019.3  33183.8
   12441.9  1.09353e+06  76064.6  33829.9
   12451.4  1.09906e+06  76853.8  34373
   12460.5  1.10874e+06  77927.1  35055.3
   12470  1.11697e+06  78946.4  35695.6
   12479.5  1.12401e+06  79878.8  36319
   12489  1.133e+06  80966.2  36980.4
   12498.9  1.14288e+06  82160.6  37706
   12508.4  1.15129e+06  83234  38374.6
   12518.3  1.15829e+06  84244.5  39025.3
   12528.2  1.16334e+06  85096  39598.1
   12538.1  1.17159e+06  86178.5  40285.9
   12548.1  1.17984e+06  87248.1  40997.9
   12558.4  1.18871e+06  88386.7  41743.9
   12568.7  1.19719e+06  89477.4  42481
   12578.7  1.20455e+06  90452  43173.1
   12589.1  1.21073e+06  91397.7  43840.4
   12599.4  1.2173e+06  92354.4  44552.7
   12610.2  1.22513e+06  93455.2  45354.1
   12620.6  1.2334e+06  94618  46167.6
   12631.3  1.23974e+06  95649.8  46934.2
   12642.1  1.24797e+06  96881.6  47778.8
   12652.9  1.25498e+06  98033.4  48591.5
   12663.8  1.25885e+06  98884.4  49265.3
   12674.6  1.2603e+06  99623.3  49871.1
   12685.8  1.26433e+06  100530  50579.1
   12696.7  1.2649e+06  101149  51172.1
   12708  1.26858e+06  102015  51887.2
   12719.3  1.27195e+06  102869  52611.4
   12730.6  1.27629e+06  103783  53386.6
   12741.9  1.28466e+06  105041  54300.9
   12753.6  1.28676e+06  105827  55038.4
   12764.9  1.29429e+06  107032  55962.8
   12776.7  1.29825e+06  107970  56777.4
   12788.4  1.30308e+06  109017  57656.1
   12800.2  1.30724e+06  109998  58499.8
   12812  1.31266e+06  111105  59395.6
   12824.2  1.31704e+06  112151  60301.5
   12836  1.32323e+06  113356  61277.4
   12848.2  1.33002e+06  114619  62299.5
   12860.5  1.33969e+06  116176  63492.6
   12872.4  1.33994e+06  116870  64214.7
   12885.1  1.34963e+06  118431  65460

File: ass_10K_scan2.xdi
# XDI/1.0
# Column.1: energy eV
# Column.2: i0
# Column.3: itrans
# Column.4: irefer
# Beamline.name: SSRL 2-3
# Beamline.notes: vert slits = 0.6mm
# Detector.I0: N2 15cm
# Detector.I1: Ar 30cm
# Detector.I2: Ar 15cm
# Element.edge: K
# Element.symbol: As
# Mono.d_spacing: 3.13550
# Mono.name: Si(111)
# Mono.notes: unfocused, detuned 75%, clockwise at E=12000eV
# Sample.formula: AsS
# Sample.name: AsS (realgar)
# Sample.prep: powder on tape (5 layers)
# Sample.reference: GaAs powder
# Sample.temperature: 10K
# Scan.start_time: 1997-04-19 17:37:58
# ///
#    Note: mono d_spacing is nominal!
#     exafs to K16, GaAs in IR
#     413  E XMU XMUR I0
#-------------
#   energy   i0   itrans  irefer
   11634.9  548697  72457.5  29774
   11654.9  543127  72368.5  30092
   11675.1  538334  72375.5  30446
   11695  532489  72211.5  30731
   11714.9  526446  72013.5  31013
   11735  522769  72109.5  31412
   11755.1  516863  71902.5  31677
   11775  511480  71726.5  31956
   11794.9  506762  71577.5  32242
   11814.9  501301  71274.5  32458
   11835  496305  70729.5  32523
   11845.4  493366  69961.5  32269
   11846.6  492707  69778.5  32185
   11847.5  492969  69762.5  32181
   11848.4  491683  69489.5  32062
   11849.6  491664  69345.5  31988
   11850.6  490756  69096.5  31871
   11851.5  490549  68918.5  31783
   11852.4  490256  68732.5  31686
   11853.6  491035  68563.5  31591
   11854.5  491110  68307.5  31457
   11855.4  490583  67981.5  31283
   11856.4  490594  67608.5  31084
   11857.6  490200  66944.5  30730
   11858.5  490183  66376.5  30406
   11859.4  490041  65622.5  29994
   11860.6  488887  64133.5  29176
   11861.6  489536  62868.5  28473
   11862.5  488429  60739.5  27300
   11863.4  488029  58043.5  25817
   11864.6  487603  51769.5  22455
   11865.5  487007  44869.5  18906
   11866.5  486895  35986.5  14574
   11867.4  486754  25553.5  9781
   11868.6  487248  13636.5  4649
   11869.5  487129  9216.5  2773
   11870.5  487186  8940.5  2439
   11871.4  486171  11538.5  3096
   11872.6  485698  17105.5  4660
   11873.5  484349  20556.5  5688
   11874.4  484901  22332.5  6265
   11875.4  484399  22542.5  6438
   11876.6  485549  21691.5  6396
   11877.5  484668  21209.5  6411
   11878.4  485199  21195.5  6554
   11879.4  484933  21447.5  6728
   11880.6  484710  21938.5  6980
   11881.5  483818  22186.5  7103
   11882.4  484528  22448.5  7221
   11883.7  483039  22655.5  7297.01
   11884.6  483077  22863.5  7361
   11885.5  482290  22990.5  7397
   11886.4  481616  23114.5  7443
   11887.6  481658  23318.5  7522
   11888.6  482568  23526.5  7596
   11889.5  482002  23684.5  7647
   11890.4  482019  23879.5  7703
   11891.6  481498  24147.5  7780
   11892.6  481561  24382.5  7858
   11893.5  481430  24590.5  7933
   11894.4  481499  24825.5  8029.01
   11895.6  480897  25079.3  8161.76
   11896.9  480241  25317.3  8294.84
   11898.4  480609  25637.4  8443
   11899.7  480217  25810.4  8483.23
   11901.2  481021  26045.6  8539.53
   11903  481014  26169.7  8575.93
   11904.6  482249  26274.9  8616.39
   11906.4  482732  26261.1  8633.93
   11908.3  483661  26212.4  8636.56
   11910.1  485286  26097.7  8612.26
   11912.3  486501  25827.9  8510.03
   11914.2  487775  25555.3  8400.89
   11916.3  488313  25155.7  8262.82
   11918.8  490157  24765.1  8190.83
   11921  492462  24522.5  8179.91
   11923.4  494795  24323  8160.08
   11925.9  495844  24157.5  8124.33
   11928.4  499067  24228  8149.64
   11930.9  501514  24321.5  8170.04
   11933.7  503853  24541.1  8199.52
   11936.4  507616  25010.8  8309.08
   11939.2  509291  25457.4  8431.71
   11942.3  511086  26061.1  8651.41
   11945.1  514720  26720.8  8903.2
   11948.2  520280  27496.6  9195.07
   11951.3  523817  28074.3  9418.01
   11954.8  527133  28520.1  9610.02
   11957.9  530406  28806  9760.12
   11961.3  534114  29013.8  9843.3
   11964.7  538153  29144.7  9876.55
   11968.5  541788  29177.7  9910.88
   11971.9  546921  29273.6  10051.3
   11975.6  552456  29344.6  10186.8
   11979.4  556381  29337.7  10230.3
   11983.1  560566  29350.7  10256
   11987.2  562979  29282.8  10213.7
   11991.3  570928  29540.9  10244.5
   11995.3  575174  29683.1  10218.4
   11999.4  580006  29980.2  10266.3
   12003.5  584383  30390.4  10429.4
   12007.9  590964  31091.7  10720.4
   12012.3  593422  31678.9  10982.6
   12016.7  602719  32679.3  11394.9
   12021.1  608170  33436.6  11730.2
   12025.8  614599  34148  12057.7
   12030.5  619872  34608.3  12289.2
   12035.3  625948  35013.8  12486.7
   12040  632688  35370.2  12674.4
   12045  638658  35594.7  12810.1
   12050.1  645141  35820.2  12947.9
   12055.2  649056  35893.8  12972.8
   12060.2  657231  36237.4  13073.8
   12065.3  666088  36660  13256.8
   12070.7  672299  36984.6  13413.9
   12076.1  679496  37452.3  13570.1
   12081.5  686650  37986  13734.4
   12086.9  692714  38520.8  13915.7
   12092.6  699005  39120.5  14177.2
   12098.3  706425  39819.3  14533.7
   12104.1  712828  40480.1  14878.3
   12109.8  719952  41191  15227.9
   12115.9  727795  41952.9  15636.7
   12121.6  735002  42639.8  16001.5
   12127.7  742693  43312.8  16367.4
   12133.8  750990  43983.8  16679.3
   12140.2  758373  44539.8  16905.4
   12146.3  765282  45012.8  17069.5
   12152.8  775145  45616.9  17309.7
   12159.2  783603  46114  17521
   12165.6  790564  46549.1  17733.4
   12172.4  798856  47123.3  18015.8
   12178.9  807503  47755.5  18333.3
   12185.7  815318  48415.7  18637.9
   12192.5  823049  49146  18990.6
   12199.6  831542  49985.3  19409.3
   12206.4  840156  50824.6  19833.1
   12213.5  848713  51689  20294.1
   12220.7  857142  52518.4  20758
   12227.8  865501  53323.8  21218.1
   12235  874490  54137.2  21645.2
   12242.5  883299  54937.7  22070.4
   12250  890704  55647.3  22417.7
   12257.5  898969  56390.8  22734.1
   12265.1  909010  57243.3  23138.5
   12272.6  914672  57817  23439.1
   12280.5  924396  58650.6  23864.7
   12288.4  931978  59341.3  24233.4
   12296.3  941183  60137  24687.1
   12304.2  950569  60968.7  25143
   12312.1  958856  61744.5  25611.9
   12320.4  966792  62554.2  26077.9
   12328.7  976143  63488.1  26607.9
   12336.6  985379  64446.9  27158.1
   12345.2  993277  65353.8  27691.3
   12353.5  1.0015e+06  66294.7  28202.6
   12362.2  1.01009e+06  67286.7  28755
   12370.5  1.01836e+06  68240.6  29288.4
   12379.2  1.02674e+06  69179.7  29818
   12387.9  1.0356e+06  70120.7  30346.6
   12396.9  1.04335e+06  70967.8  30813.3
   12405.6  1.05278e+06  71908.9  31351
   12414.7  1.05996e+06  72717  31833.9
   12423.8  1.06869e+06  73624.1  32382.8
   12432.8  1.08028e+06  74755.3  33046.8
   12441.9  1.08708e+06  75588.6  33599.9
   12451.4  1.0948e+06  76533.8  34205
   12460.5  1.10301e+06  77490.1  34827.3
   12470  1.1113e+06  78505.4  35467.6
   12479.5  1.11989e+06  79552.8  36146
   12489  1.12691e+06  80499.2  36733.5
   12498.9  1.13685e+06  81693.6  37451
   12508.4  1.14457e+06  82727  38101.6
   12518.3  1.15086e+06  83662.5  38711.3
   12528.2  1.15654e+06  84558  39308.1
   12538.1  1.16526e+06  85673.5  40015.9
   12548.1  1.17449e+06  86808.1  40749.9
   12558.4  1.18189e+06  87829.7  41431.9
   12568.7  1.1896e+06  88849.4  42137
   12578.7  1.19784e+06  89914  42861.2
   12589.1  1.20429e+06  90854.7  43535.4
   12599.4  1.21236e+06  91944.4  44301.7
   12610.2  1.2169e+06  92783.1  44972.1
   12620.6  1.22605e+06  93994  45806.6
   12631.3  1.23488e+06  95250.8  46681.1
   12642.1  1.23825e+06  96089.6  47337.8
   12652.9  1.24408e+06  97146.5  48101.5
   12663.8  1.25043e+06  98197.4  48870.3
   12674.6  1.25594e+06  99230.3  49630.1
   12685.8  1.26377e+06  100456  50508.1
   12696.7  1.26747e+06  101338  51214.1
   12708  1.2716e+06  102226  51934.2
   12719.3  1.27125e+06  102783  52516.4
   12730.6  1.2723e+06  103441  53148.6
   12741.9  1.27754e+06  104440  53968
   12753.6  1.28404e+06  105589  54859.4
   12764.9  1.28803e+06  106491  55649.8
   12776.7  1.29357e+06  107565  56512.4
   12788.4  1.29765e+06  108536  57363.1
   12800.2  1.30479e+06  109772  58320.8
   12812  1.31162e+06  110992  59290.6
   12824.2  1.31796e+06  112222  60291.5
   12836  1.32141e+06  113183  61139.4
   12848.2  1.32694e+06  114350  62104.5
   12860.5  1.33287e+06  115561  63117.5
   12872.4  1.33399e+06  116346  63882.8
   12885.1  1.34368e+06  117896  65109

File: ass_100K_scan1.xdi
# XDI/1.0
# Column.1: energy eV
# Column.2: i0
# Column.3: itrans
# Column.4: irefer
# Beamline.name: SSRL 2-3
# Beamline.notes: vert slits = 0.6mm
# Detector.I0: N2 15cm
# Detector.I1: Ar 30cm
# Detector.I2: Ar 15cm
# Element.edge: K
# Element.symbol: As
# Mono.d_spacing: 3.13550
# Mono.name: Si(111)
# Mono.notes: unfocused, detuned 75%, clockwise at E=12000eV
# Sample.formula: AsS
# Sample.name: AsS (realgar)
# Sample.prep: powder on tape (5 layers)
# Sample.reference: GaAs powder
# Sample.temperature: 100K
# Scan.start_time: 1997-04-20 00:46:37
# ///
#    Note: mono d_spacing is nominal!
#     exafs to K16, GaAs in IR
#     413  E XMU XMUR I0
#-------------
#   energy   i0   itrans  irefer
   11634.9  507191  72867.5  29701
   11654.9  501985  72710.5  29986
   11675.1  497537  72680.5  30336
   11695  491409  72383.5  30567
   11714.9  487580  72407.5  30922
   11735  482352  72210.5  31205
   11755.1  477091  72004.5  31472
   11775  472909  71918.5  31793
   11794.9  467916  71662.5  32039
   11814.9  462932  71320.5  32223
   11835  458338  70711.5  32253
   11845.4  455600  69846.5  31943
   11846.6  455984  69795.5  31925
   11847.5  454797  69514.5  31793
   11848.4  454407  69356.5  31722
   11849.6  453623  69054.5  31571
   11850.6  453853  68937.5  31502
   11851.5  453918  68759.5  31418
   11852.4  454219  68599.5  31331
   11853.6  453771  68171.5  31106
   11854.5  454241  67891.5  30949
   11855.4  453782  67430.5  30712
   11856.4  453979  66944.5  30443
   11857.6  453129  65927.5  29882
   11858.5  453328  65096.5  29421
   11859.4  452688  63818.5  28722
   11860.6  452575  61472.5  27430
   11861.6  451890  58947.5  26051
   11862.5  451553  55115.5  23989
   11863.4  450824  49503.5  21046
   11864.6  450790  37868.5  15291
   11865.5  450811  27096.5  10333
   11866.5  451056  17698.5  6275
   11867.4  450906  10883.5  3432
   11868.6  450651  9005.5  2450
   11869.5  449949  11490.5  3058
   11870.5  449639  15602.5  4195
   11871.4  448862  19388.5  5283
   11872.6  448766  22602.5  6282
   11873.5  448718  23026.5  6512
   11874.4  449046  22492.5  6488
   11875.4  448871  21817.5  6465
   11876.6  448861  21595.5  6608
   11877.5  448704  21832.5  6788.01
   11878.4  448686  22198.5  6975
   11879.4  448192  22492.5  7123
   11880.6  447980  22830.5  7278
   11881.5  447406  23002.5  7348
   11882.4  447137  23171.5  7404
   11883.7  446043  23350.5  7458
   11884.6  446177  23518.5  7513
   11885.5  445612  23632.5  7560
   11886.4  445788  23802.5  7629
   11887.6  446196  24056.5  7716
   11888.6  446358  24253.5  7773
   11889.5  446273  24463.5  7833
   11890.4  445868  24647.5  7893
   11891.6  445613  24931.5  7975
   11892.6  445290  25128.5  8049.99
   11893.5  444925  25322.5  8146
   11894.4  444831  25526.5  8259
   11895.6  444671  25773.2  8390.76
   11896.9  444401  26001.3  8493.83
   11898.4  444250  26238.3  8563
   11899.7  444350  26387.5  8589.23
   11901.2  444959  26554.6  8627.53
   11903  445625  26654.7  8671.93
   11904.6  445662  26645.9  8681.39
   11906.4  446665  26619.1  8702.94
   11908.3  447363  26499.4  8672.56
   11910.1  448623  26325.7  8617.26
   11912.3  449496  26000.9  8488.03
   11914.2  450865  25717.3  8383.89
   11916.3  452680  25368.7  8292.82
   11918.8  454062  24996.1  8251.83
   11921  455612  24770.5  8229.92
   11923.4  457716  24618  8210.08
   11925.9  459435  24557.5  8200.33
   11928.4  462082  24646  8230.64
   11930.9  463937  24776.6  8253.04
   11933.7  466899  25129.2  8314.52
   11936.4  469085  25579.8  8418.07
   11939.2  470783  26076.4  8575.7
   11942.3  472714  26700.1  8819.41
   11945.1  477034  27411.8  9087.21
   11948.2  481034  28096.6  9344.06
   11951.3  484651  28648.3  9558.01
   11954.8  487476  29019.1  9734.03
   11957.9  491188  29310  9868.13
   11961.3  494616  29470.8  9923.3
   11964.7  498667  29588.7  9962.55
   11968.5  502672  29644.7  10032.9
   11971.9  506615  29675.6  10159.3
   11975.6  510961  29716.6  10267.8
   11979.4  514801  29720.6  10299.3
   11983.1  518689  29752.7  10316
   11987.2  521680  29727.8  10273.7
   11991.3  528601  29988.9  10301.5
   11995.3  531861  30148  10277.4
   11999.4  538252  30602.2  10401.3
   12003.5  543031  31106.5  10612.4
   12007.9  547791  31777.7  10885.4
   12012.3  551647  32480.9  11187.6
   12016.7  558131  33347.3  11551.9
   12021.1  563741  34101.6  11885.3
   12025.8  570206  34794  12212.7
   12030.5  575720  35262.4  12443.2
   12035.3  580726  35593.8  12612.7
   12040  585841  35883.2  12774.4
   12045  592126  36153.7  12925.1
   12050.1  598220  36385.2  13062.9
   12055.2  601563  36448.8  13073.8
   12060.2  610177  36878.4  13206.8
   12065.3  618764  37332  13420.8
   12070.7  624232  37665.6  13564.9
   12076.1  630688  38131.3  13712.1
   12081.5  636676  38646  13870.4
   12086.9  644059  39297.8  14096.7
   12092.6  650745  39967.5  14402.2
   12098.3  656490  40605.3  14730.7
   12104.1  663342  41335.1  15107.3
   12109.8  669434  42016  15446.9
   12115.9  677607  42837.9  15873.6
   12121.6  685485  43585.8  16265.5
   12127.7  691532  44184.8  16590.4
   12133.8  698800  44812.8  16882.3
   12140.2  706641  45424.8  17124.4
   12146.3  714381  45973.8  17319.5
   12152.8  721757  46464.9  17515.7
   12159.2  728933  46938  17717
   12165.6  735033  47367.1  17939.3
   12172.4  743816  48014.3  18261.8
   12178.9  751778  48656.5  18573.3
   12185.7  760211  49409.7  18898.9
   12192.5  767723  50178  19275.6
   12199.6  774918  50976.3  19684.3
   12206.4  783092  51823.6  20109.1
   12213.5  791008  52675  20557.1
   12220.7  799184  53537.4  21044
   12227.8  807626  54382.8  21498.1
   12235  815439  55172.2  21913.2
   12242.5  823052  55945.7  22335.4
   12250  831466  56757.2  22704.7
   12257.5  840304  57598.8  23062.1
   12265.1  845678  58172.3  23353.5
   12272.6  856205  59103  23787.1
   12280.5  865385  59949.6  24212.7
   12288.4  873009  60686.3  24606.4
   12296.3  881145  61466.9  25063.1
   12304.2  888230  62185.7  25478.9
   12312.1  896393  63003.5  25950.9
   12320.4  905053  63898.3  26461.9
   12328.7  911900  64723.1  26946.9
   12336.6  921384  65737.9  27508.1
   12345.2  929779  66734.8  28083.3
   12353.5  937686  67709.7  28618.6
   12362.2  945836  68709.7  29168
   12370.5  953954  69684.7  29713.4
   12379.2  961892  70644.6  30258
   12387.9  968806  71496.7  30722.6
   12396.9  977769  72485.8  31266.3
   12405.6  985957  73399.8  31791
   12414.7  992848  74225  32270.9
   12423.8  1.00157e+06  75183.2  32851.8
   12432.8  1.00993e+06  76157.3  33445.8
   12441.9  1.01785e+06  77114.6  34052.9
   12451.4  1.02526e+06  78064.9  34677.1
   12460.5  1.03323e+06  79064.1  35328.3
   12470  1.04218e+06  80164.4  36008.6
   12479.5  1.04965e+06  81188.8  36659
   12489  1.05461e+06  82025.2  37202.5
   12498.9  1.06309e+06  83157.6  37892
   12508.4  1.07023e+06  84189  38540.6
   12518.3  1.0792e+06  85390.5  39279.3
   12528.2  1.08701e+06  86485  39967.1
   12538.1  1.09317e+06  87457.6  40597
   12548.1  1.10187e+06  88619.1  41350.9
   12558.4  1.10883e+06  89669.7  42025.9
   12568.7  1.11723e+06  90800.3  42785
   12578.7  1.12466e+06  91836  43517.1
   12589.1  1.13103e+06  92814.7  44202.4
   12599.4  1.13835e+06  93882.4  44958.7
   12610.2  1.14475e+06  94905.2  45714.1
   12620.6  1.15372e+06  96151.9  46570.6
   12631.3  1.15952e+06  97212.8  47346.2
   12642.1  1.16638e+06  98366.5  48145.8
   12652.9  1.17206e+06  99436.4  48908.5
   12663.8  1.178e+06  100491  49694.3
   12674.6  1.18285e+06  101503  50439.1
   12685.8  1.18929e+06  102633  51281.1
   12696.7  1.19717e+06  103866  52149.1
   12708  1.20674e+06  105264  53137.2
   12719.3  1.21182e+06  106265  53948.4
   12730.6  1.21583e+06  107191  54712.6
   12741.9  1.22231e+06  108315  55600
   12753.6  1.22879e+06  109514  56528.4
   12764.9  1.23435e+06  110569  57410.9
   12776.7  1.2397e+06  111682  58324.4
   12788.4  1.24505e+06  112812  59250.1
   12800.2  1.25191e+06  114060  60242.8
   12812  1.25747e+06  115231  61202.6
   12824.2  1.26096e+06  116247  62074.5
   12836  1.2677e+06  117555  63130.4
   12848.2  1.27046e+06  118507  63972.5
   12860.5  1.2743e+06  119555  64913.5
   12872.4  1.28099e+06  120860  65977.8
   12885.1  1.28414e+06  121883  66908