Folder: XASDataLibrary/data/As (part 2)

File: as2o3_roomt_scan2.xdi
# XDI/1.0
# Column.1: energy eV
# Column.2: i0
# Column.3: itrans
# Column.4: irefer
# Beamline.name: SSRL 4-1
# Detector.I0: N2 15cm
# Detector.I1: N2 30cm
# Detector.I2: Ar 15cm
# Element.edge: K
# Element.symbol: As
# Mono.d_spacing: 3.13550
# Mono.name: Si(111)
# Mono.notes: unfocused, detuned 40%,counter clockwise at E=12000eV
# Sample.formula: As2O3
# Sample.name: As2O3 arsenious oxide
# Sample.prep: powder, mixed 1:60 with B(OH)3 by wt
# Sample.reference: GaAs powder
# Sample.temperature: room temperature
# Scan.start_time: 1997-01-19 14:12:16
# ///
#    Note: mono d_spacing is nominal!
#     exafs to K15, GaAs in IR
#     320  E XMU XMUR I0
#-------------
#   energy   i0   itrans  irefer
   11650  176879  277850  322182
   11670  175898  277701  323742
   11690  175214  277999  325864
   11710  175255  279432  329316
   11730  173769  278476  329895
   11750  172410  277640  330659
   11770  171875  278078  332943
   11790  170792  277613  334104
   11810  170728  278738  337048
   11830  169460  277464  336946
   11850  168064  274337  333175
   11851.5  168021  273907  332412
   11853  167039  271858  329636
   11854.5  168047  272901  330423
   11856.1  167862  271757  328408
   11857.6  166590  268677  323847
   11859.1  167235  268084  321699
   11860.6  167274  265920  316883
   11862.1  167429  262734  309231
   11863.6  167424  256499  293256
   11865.2  168126  246367  263898
   11866.7  166689  220189  210680
   11868.2  167431  180633  151100
   11869.7  167057  140829  105106
   11871.2  166157  119422  87884.9
   11872.7  166752  127026  94998.9
   11874.2  166677  147942  113474
   11875.8  166569  163690  129612
   11877.3  166206  172875  140769
   11878.8  165885  174586  145655
   11880.3  166387  171220  144960
   11881.8  166145  167288  142816
   11883.3  166163  167714  143602
   11884.8  166099  170752  146101
   11886.4  165221  172899  148049
   11887.9  166891  177502  152146
   11889.4  165819  179355  153669
   11890.9  165266  182187  155880
   11892.4  165459  185294  158517
   11893.9  165225  187568  160940
   11895.5  165274  189068  163202
   11897  164581  188663  163724
   11898.5  165077  189580  164826
   11900  165650  190747  165547
   11902.6  165352  191618  165764
   11905.2  166290  193990  168039
   11908  165632  193731  168205
   11910.8  165204  192088  166743
   11913.6  165747  190370  164764
   11916.6  166643  189659  164076
   11919.6  166165  188128  164037
   11922.7  165919  186427  163836
   11925.9  167370  186101  164004
   11929.2  167902  185302  163296
   11932.5  168424  185104  162441
   11936  168628  184998  161112
   11939.4  169638  185938  161070
   11943  170476  186405  161718
   11946.7  170425  186510  162352
   11950.4  172873  190447  166324
   11954.2  172246  191120  167405
   11958.1  174530  194655  171265
   11962  175275  196512  173124
   11966  175343  197448  173651
   11970.2  177417  200611  177083
   11974.3  178901  203020  181192
   11978.6  179598  204626  184040
   11982.9  181635  208025  187420
   11987.3  182902  210440  189217
   11991.8  183455  211549  188996
   11996.4  184960  213555  189117
   12001  187908  216699  190774
   12005.8  189637  218079  192261
   12010.6  191476  219473  194265
   12015.4  193149  220865  196484
   12020.4  195783  223565  199847
   12025.4  197555  225396  202624
   12030.5  199056  227060  205135
   12035.7  201214  229703  208327
   12040.9  204112  233604  212624
   12046.3  205743  236328  215728
   12051.7  208277  240197  219883
   12057.2  210856  244037  223004
   12062.7  213078  247237  225418
   12068.4  214598  249402  227898
   12074.1  217359  253001  231131
   12079.9  219274  255915  232866
   12085.7  222607  260536  236375
   12091.7  224935  263893  239440
   12097.7  227438  267331  243829
   12103.8  230590  271631  249241
   12110  232479  274623  253189
   12116.2  236666  280413  260062
   12122.6  237460  281936  263075
   12129  242847  288798  270800
   12135.4  245884  292607  274915
   12142  247128  294008  275891
   12148.6  250965  298369  279479
   12155.4  252348  300007  280747
   12162.1  256501  305412  285894
   12169  260124  310595  291257
   12175.9  264891  317475  298491
   12183  267290  321698  302914
   12190  270508  326754  308153
   12197.2  273263  331011  313220
   12204.5  277178  336466  319335
   12211.8  280439  340921  324779
   12219.2  284571  346381  331655
   12226.7  288434  351560  338312
   12234.2  292268  357016  344727
   12241.9  294165  360323  348946
   12249.6  298915  367405  356135
   12257.3  301980  372507  360760
   12265.2  304357  376675  364970
   12273.1  309796  384427  372990
   12281.1  314708  391261  380160
   12289.2  316243  393676  383519
   12297.4  321935  401201  392190
   12305.6  324624  404937  397217
   12314  329614  411872  405253
   12322.4  331604  415261  410003
   12330.8  336447  422521  418657
   12339.4  340386  428913  426537
   12348  344373  435408  434286
   12356.7  348263  441431  441917
   12365.5  353485  449758  450252
   12374.3  357476  455957  458015
   12383.3  361447  462036  464907
   12392.3  365600  468224  471956
   12401.4  369678  474458  479146
   12410.5  373827  480936  486759
   12419.8  378829  488757  495999
   12429.1  382710  495334  504205
   12438.5  387850  503581  514315
   12447.9  389640  507488  520269
   12457.5  395227  516198  530972
   12467.1  398966  522320  539055
   12476.8  404473  530652  549380
   12486.6  409359  538127  558607
   12496.4  413906  545187  567321
   12506.4  416019  549254  572883
   12516.4  421031  557325  582820
   12526.4  426277  565963  593465
   12536.6  430706  573714  603071
   12546.8  433802  579669  610965
   12557.1  439956  589756  623322
   12567.5  443450  596147  631909
   12578  446171  601374  639398
   12588.5  453839  613292  654171
   12599.2  459032  621859  665586
   12609.9  461874  627335  673779
   12620.6  466154  634950  684136
   12631.5  470048  642069  693995
   12642.4  474234  649805  704351
   12653.4  478181  657248  714424
   12664.5  482553  665234  725085
   12675.6  487304  673672  736351
   12686.8  493550  684151  749959
   12698.1  496455  689944  758563
   12709.5  502236  699842  771733
   12715.2  501365  699522  772568

File: as2o5_10K_scan3.xdi
# XDI/1.0
# Column.1: energy eV
# Column.2: i0
# Column.3: itrans
# Column.4: irefer
# Beamline.name: SSRL 2-3
# Beamline.notes: vert slits = 0.6mm
# Detector.I0: N2 15cm
# Detector.I1: Ar 30cm
# Detector.I2: Ar 15cm
# Element.edge: K
# Element.symbol: As
# Mono.d_spacing: 3.13550
# Mono.name: Si(111)
# Mono.notes: unfocused, detuned 75%, clockwise at E=12000eV
# Sample.formula: As2O5
# Sample.name: As2O5 arsenic (V) oxide
# Sample.prep: powder on tape (5 layers)
# Sample.reference: GaAs powder
# Sample.temperature: 10K
# Scan.start_time: 1997-04-19 18:40:39
# ///
#    Note: mono d_spacing is nominal!
#     exafs to K16, GaAs in IR
#     413  E XMU XMUR I0
#-------------
#   energy   i0   itrans  irefer
   11634.9  543932  96585.5  39606
   11654.9  538292  96276.5  39949
   11675.1  533119  96060.5  40335
   11695  525778  95424.5  40528
   11714.9  521146  95279.5  40934
   11735  516458  95089.5  41332
   11755.1  510517  94667.5  41624
   11775  505636  94405.5  41964
   11794.9  500617  94051.5  42290
   11814.9  494605  93448.5  42475
   11835  490137  92837.5  42589
   11845.4  486968  92031.5  42356
   11846.6  487064  91989.5  42341
   11847.5  486724  91881.5  42291
   11848.4  486652  91796.5  42246
   11849.6  486001  91594.5  42155
   11850.6  485053  91352.5  42041
   11851.5  484669  91186.5  41959
   11852.4  485085  91159.5  41940
   11853.6  485656  91097.5  41873
   11854.5  485864  90994.5  41791
   11855.4  486145  90893.5  41716
   11856.4  485326  90547.5  41520
   11857.6  485817  90320.5  41304
   11858.5  484990  89896.5  41040
   11859.4  485001  89580.5  40779
   11860.6  484803  88957.5  40263
   11861.6  484357  88398.5  39762
   11862.5  484151  87748.5  39067
   11863.4  483611  86929.5  38138
   11864.6  481715  85195.5  35787
   11865.5  481690  83817.5  33196
   11866.5  482098  82068.5  29849
   11867.4  482511  79602.5  26043
   11868.6  482442  74176.5  21366
   11869.5  482280  68404.5  18707
   11870.5  481489  59829.5  16019
   11871.4  481240  49430.5  13230
   11872.6  480366  32135.5  8725
   11873.5  480420  21104.5  5815
   11874.4  479806  14193.5  3977
   11875.4  480085  11306.5  3247
   11876.6  479889  13026.5  3896
   11877.5  480298  16266.5  4980
   11878.4  479701  20099.5  6260
   11879.4  479830  23724.5  7464
   11880.6  479157  28164.5  8963.99
   11881.5  478961  30514.5  9769.99
   11882.4  478382  31878.5  10240
   11883.7  478197  32815.5  10546
   11884.6  477886  33036.5  10610
   11885.5  476456  33064.5  10617
   11886.4  476905  33205.5  10679
   11887.6  476880  33423.5  10765
   11888.6  477266  33678.5  10852
   11889.5  476753  33974.5  10951
   11890.4  476609  34415.5  11081
   11891.6  476203  35196.5  11321
   11892.6  476262  35843.5  11532
   11893.5  475792  36404.5  11727
   11894.4  475234  36935.5  11944
   11895.6  475023  37593.2  12242.8
   11896.9  475172  38147.3  12502.8
   11898.4  474720  38618.4  12702
   11899.7  475732  39210.4  12872.2
   11901.2  475177  40184.6  13148.5
   11903  475989  41769.7  13663.9
   11904.6  476242  42969.9  14072.4
   11906.4  477556  44398.1  14581.9
   11908.3  477576  45575.4  15011.6
   11910.1  479278  46647.7  15374.3
   11912.3  481255  47270  15549
   11914.2  482364  47117.3  15475.9
   11916.3  483736  46396.7  15234.8
   11918.8  484880  45126.1  14937.8
   11921  487207  43985.5  14676.9
   11923.4  489005  42887  14370.1
   11925.9  491093  42211.5  14183.3
   11928.4  493472  41731  14030.6
   11930.9  496349  41243.5  13840
   11933.7  499092  40562.1  13536.5
   11936.4  500432  39921.8  13236.1
   11939.2  504458  39817.4  13166.7
   11942.3  504467  39588.1  13130.4
   11945.1  509232  39913.8  13290.2
   11948.2  514939  40344.5  13478.1
   11951.3  516958  40621.3  13613
   11954.8  520585  41202.1  13874
   11957.9  525150  41913  14189.1
   11961.3  527969  42526.8  14408.3
   11964.7  532763  43197.7  14620.5
   11968.5  536403  43758.7  14862.9
   11971.9  540822  44489.6  15267.3
   11975.6  544552  45488.6  15778.8
   11979.4  550081  46770.7  16290.3
   11983.1  552674  47673.7  16636
   11987.2  555868  48406.8  16854.7
   11991.3  564483  49419.9  17102.5
   11995.3  569619  50119.1  17217.4
   11999.4  573544  50639.2  17326.3
   12003.5  579645  51252.5  17562.4
   12007.9  584991  51710.7  17809.5
   12012.3  587691  51891.9  17960.6
   12016.7  595911  52452.2  18276.9
   12021.1  602322  52895.6  18532.2
   12025.8  607901  53184.9  18757.7
   12030.5  614301  53343.4  18915.2
   12035.3  620394  53486.8  19049.7
   12040  626231  53716.2  19212.4
   12045  632756  54378.7  19536.1
   12050.1  637955  55184.2  19918.9
   12055.2  642525  55858.8  20152.8
   12060.2  651240  56799.4  20460.8
   12065.3  658478  57627  20815.8
   12070.7  664712  58358.6  21146.9
   12076.1  671508  59229.3  21419.1
   12081.5  678808  60125  21692.4
   12086.9  685845  60960.7  21976.7
   12092.6  691200  61691.5  22333.1
   12098.3  698509  62647.3  22838.7
   12104.1  705857  63615.1  23353.2
   12109.8  712350  64504  23831.9
   12115.9  719967  65484.9  24378.7
   12121.6  729038  66546.8  24948.5
   12127.7  735313  67452.8  25454.4
   12133.8  743202  68523.7  25954.3
   12140.2  750972  69488.7  26333.4
   12146.3  757900  70298.8  26631.5
   12152.8  765942  71107.9  26947.7
   12159.2  773192  71731  27216
   12165.6  781063  72487.1  27575.3
   12172.4  790086  73409.3  28028.8
   12178.9  798029  74514.5  28565.3
   12185.7  805861  75619.8  29074.9
   12192.5  812881  76438  29514.6
   12199.6  820330  77296.3  30005.3
   12206.4  829442  78500.6  30607.1
   12213.5  837387  79817  31289
   12220.7  845672  80828.4  31909
   12227.8  854313  81732.8  32474.1
   12235  861709  82829.3  33068.2
   12242.5  869370  83949.7  33679.4
   12250  880216  85396.2  34341.7
   12257.5  888304  86444.8  34790.1
   12265.1  897135  87626.3  35353.5
   12272.6  905134  88782.9  35917.1
   12280.5  913510  90023.6  36554.7
   12288.4  923252  91545.3  37314.4
   12296.3  931619  92818  38048.1
   12304.2  939381  94005.7  38719.9
   12312.1  946613  95005.4  39337.9
   12320.4  956345  96209.2  40037.9
   12328.7  965340  97472.1  40787.9
   12336.6  974433  98744.9  41546.1
   12345.2  981407  99853.8  42228.3
   12353.5  989868  101092  42930.6
   12362.2  999498  102530  43733
   12370.5  1.00742e+06  103750  44456.4
   12379.2  1.01694e+06  105222  45284
   12387.9  1.02633e+06  106545  46014.6
   12396.9  1.03595e+06  107927  46789.3
   12405.6  1.04468e+06  109244  47542.1
   12414.7  1.05399e+06  110711  48394.9
   12423.8  1.0624e+06  112275  49313.8
   12432.8  1.07099e+06  113748  50222.8
   12441.9  1.07856e+06  114961  51032.9
   12451.4  1.08604e+06  116133  51846.1
   12460.5  1.09655e+06  117671  52820.3
   12470  1.10454e+06  119103  53746.6
   12479.5  1.11156e+06  120514  54668
   12489  1.12059e+06  122124  55652.4
   12498.9  1.12865e+06  123691  56638
   12508.4  1.1348e+06  124909  57446.6
   12518.3  1.14286e+06  126367  58380.3
   12528.2  1.15055e+06  127687  59299.1
   12538.1  1.16054e+06  129335  60343
   12548.1  1.16691e+06  130640  61245.9
   12558.4  1.17434e+06  132064  62193.9
   12568.7  1.18392e+06  133823  63372
   12578.7  1.18992e+06  135054  64280.1
   12589.1  1.1951e+06  136299  65213.4
   12599.4  1.2041e+06  137862  66338.7
   12610.2  1.20941e+06  139049  67300.1
   12620.6  1.2172e+06  140582  68419.6
   12631.3  1.22625e+06  142395  69668.1
   12642.1  1.22981e+06  143651  70646.8
   12652.9  1.23775e+06  145224  71789.5
   12663.8  1.24589e+06  146775  72936.3
   12674.6  1.25287e+06  148223  74005.2
   12685.8  1.25714e+06  149450  75039.1
   12696.7  1.26519e+06  151139  76278.1
   12708  1.27084e+06  152556  77405.2
   12719.3  1.27683e+06  154091  78615.4
   12730.6  1.28275e+06  155632  79837.7
   12741.9  1.2893e+06  157248  81114
   12753.6  1.29605e+06  158921  82449.4
   12764.9  1.30479e+06  160696  83850.9
   12776.7  1.30798e+06  161839  84914.4
   12788.4  1.31322e+06  163297  86177.1
   12800.2  1.32003e+06  164928  87501.8
   12812  1.32579e+06  166427  88789.6
   12824.2  1.33002e+06  167869  90061.5
   12836  1.33707e+06  169557  91443.4
   12848.2  1.3395e+06  170653  92573.5
   12860.5  1.34569e+06  172261  93936.6
   12872.4  1.35148e+06  173904  95343.8
   12885.1  1.35419e+06  175245  96632

File: as2o5_100K_scan1.xdi
# XDI/1.0
# Column.1: energy eV
# Column.2: i0
# Column.3: itrans
# Column.4: irefer
# Beamline.name: SSRL 2-3
# Beamline.notes: vert slits = 0.6mm
# Detector.I0: N2 15cm
# Detector.I1: Ar 30cm
# Detector.I2: Ar 15cm
# Element.edge: K
# Element.symbol: As
# Mono.d_spacing: 3.13550
# Mono.name: Si(111)
# Mono.notes: unfocused, detuned 75%, clockwise at E=12000eV
# Sample.formula: As2O5
# Sample.name: As2O5 arsenic (V) oxide
# Sample.prep: powder on tape (5 layers)
# Sample.reference: GaAs powder
# Sample.temperature: 100K
# Scan.start_time: 1997-04-19 21:41:34
# ///
#    Note: mono d_spacing is nominal!
#     exafs to K16, GaAs in IR
#     413  E XMU XMUR I0
#-------------
#   energy   i0   itrans  irefer
   11634.9  531640  94214.5  38364
   11654.9  526404  93994.5  38738
   11675.1  520255  93598.5  39031
   11695  514902  93301.5  39365
   11714.9  509974  93077.5  39728
   11735  504661  92775.5  40055
   11755.1  499797  92529.5  40415
   11775  494579  92181.5  40726
   11794.9  489568  91838.5  41018
   11814.9  484705  91415.5  41268
   11835  479460  90657.5  41324
   11845.4  477567  90056.5  41163
   11846.6  476389  89789.5  41038
   11847.5  476435  89709.5  41001
   11848.4  475504  89492.5  40904
   11849.6  475467  89383.5  40842
   11850.6  474312  89096.5  40708
   11851.5  474555  89051.5  40675
   11852.4  474622  88960.5  40620
   11853.6  475197  88872.5  40552
   11854.5  474547  88596.5  40392
   11855.4  474514  88426.5  40271
   11856.4  474124  88137.5  40090
   11857.6  474148  87780.5  39825
   11858.5  474366  87515.5  39613
   11859.4  473448  87010.5  39254
   11860.6  473360  86393.5  38701
   11861.6  473011  85779.5  38141
   11862.5  473249  85102.5  37349
   11863.4  472020  84058.5  36165
   11864.6  471721  82395.5  33451
   11865.5  470936  80603.5  30326
   11866.5  471823  78640.5  26891
   11867.4  471466  75474.5  23236
   11868.6  471739  69003.5  19109
   11869.5  471066  61958.5  16588
   11870.5  470961  52315.5  13884
   11871.4  470036  41213.5  10991
   11872.6  469506  24929.5  6779
   11873.5  468981  16055.5  4450
   11874.4  469439  11646.5  3307
   11875.4  469184  10897.5  3189
   11876.6  469471  14012.5  4249
   11877.5  468981  17375.5  5361
   11878.4  468864  21113.5  6593
   11879.4  468325  24386.5  7680
   11880.6  468693  28158.5  8949.01
   11881.5  468130  29946.5  9552
   11882.4  467845  30939.5  9889
   11883.7  467207  31484.5  10060
   11884.6  466342  31574.5  10086
   11885.5  466060  31649.5  10118
   11886.4  465648  31735.5  10161
   11887.6  465979  31981.5  10252
   11888.6  466017  32235.5  10334
   11889.5  466696  32650.5  10460
   11890.4  465713  33061.5  10587
   11891.6  466113  33895.5  10841
   11892.6  465567  34468.5  11030
   11893.5  465446  35015.5  11232
   11894.4  464893  35497.5  11431
   11895.6  464833  36135.3  11725.8
   11896.9  464620  36614.3  11946.8
   11898.4  465009  37178.3  12143
   11899.7  464667  37734.4  12293.2
   11901.2  465743  38914.6  12640.5
   11903  465479  40374.7  13120.9
   11904.6  466488  41602.9  13537.4
   11906.4  466835  42893.1  13995.9
   11908.3  467966  44085.4  14415.6
   11910.1  468365  44919.6  14698.3
   11912.3  470619  45424  14834
   11914.2  471520  45151.3  14717.9
   11916.3  473699  44457.7  14507.8
   11918.8  473880  43096.1  14178.8
   11921  476867  42056.5  13953.9
   11923.4  478447  41048  13676.1
   11925.9  480642  40452.5  13509.3
   11928.4  483002  39985  13357.7
   11930.9  485024  39419.5  13143
   11933.7  488028  38783.1  12859.5
   11936.4  489915  38242.8  12603.1
   11939.2  493728  38185.4  12553.7
   11942.3  494005  37993.1  12526.4
   11945.1  498586  38287.8  12675.2
   11948.2  503380  38653.6  12848.1
   11951.3  505929  38981.3  12993
   11954.8  510275  39630.2  13271
   11957.9  513902  40243  13537.1
   11961.3  517450  40874.8  13763.3
   11964.7  522196  41517.8  13971.6
   11968.5  525518  42037.7  14199.9
   11971.9  529884  42808.7  14614.3
   11975.6  533828  43817.6  15115.8
   11979.4  538863  45013.7  15589.3
   11983.1  541978  45916.7  15918
   11987.2  544867  46609.8  16116.7
   11991.3  553578  47607.9  16358.5
   11995.3  556959  48146.1  16431.4
   11999.4  561987  48730.2  16562.3
   12003.5  568110  49324.4  16809.4
   12007.9  572446  49684.7  17014.5
   12012.3  575924  49916  17188.6
   12016.7  584033  50471.3  17483.9
   12021.1  589019  50787.6  17683.2
   12025.8  594878  51078  17916.7
   12030.5  601049  51224.4  18061.2
   12035.3  608317  51452.8  18225.7
   12040  613710  51670.3  18389.4
   12045  619237  52248.7  18666.1
   12050.1  625293  53098.2  19053.9
   12055.2  629810  53749.8  19268.8
   12060.2  638880  54681.4  19578.8
   12065.3  645342  55430  19910.8
   12070.7  651575  56155.6  20224.9
   12076.1  658004  56981.3  20486.1
   12081.5  665414  57869  20753.4
   12086.9  670984  58555.8  20989.7
   12092.6  678781  59493.5  21407.2
   12098.3  686464  60464.3  21918.7
   12104.1  693342  61370.2  22391.3
   12109.8  700210  62291  22875.9
   12115.9  708079  63277.9  23424.6
   12121.6  715520  64175.8  23927.5
   12127.7  722739  65134.8  24427.4
   12133.8  728923  66022.8  24863.3
   12140.2  738412  67129.8  25299.4
   12146.3  744365  67866.8  25557.5
   12152.8  752459  68650.9  25870.7
   12159.2  761269  69391  26186
   12165.6  768363  70093.2  26522.4
   12172.4  776930  70986.3  26965.8
   12178.9  785798  72134.5  27501.3
   12185.7  794476  73264.7  28013.9
   12192.5  800449  73957  28396.6
   12199.6  808016  74823.3  28870.3
   12206.4  816807  76017.6  29466.1
   12213.5  825631  77355  30160
   12220.7  833193  78278.4  30733
   12227.8  841826  79192.8  31282.1
   12235  850541  80393.3  31920.2
   12242.5  858644  81518.7  32512.4
   12250  867914  82798.3  33093.7
   12257.5  875534  83780.8  33525.1
   12265.1  882995  84846.3  34031.5
   12272.6  892340  86112  34639.1
   12280.5  900141  87302.6  35240.7
   12288.4  908912  88672.2  35945.3
   12296.3  916185  89814  36608.1
   12304.2  926282  91197.7  37359
   12312.1  932384  92073.4  37908.9
   12320.4  942452  93298.3  38621.9
   12328.7  953055  94701  39407.9
   12336.6  960247  95793.9  40076.1
   12345.2  969117  97067.8  40832.3
   12353.5  978154  98320.7  41536.6
   12362.2  985904  99543.7  42235
   12370.5  994749  100808  42970.4
   12379.2  1.00192e+06  102024  43666
   12387.9  1.01039e+06  103240  44347.6
   12396.9  1.02006e+06  104631  45110.3
   12405.6  1.02821e+06  105856  45814
   12414.7  1.03548e+06  107116  46569.9
   12423.8  1.04483e+06  108735  47507.8
   12432.8  1.05219e+06  110030  48323.8
   12441.9  1.0613e+06  111375  49167.9
   12451.4  1.06858e+06  112527  49970
   12460.5  1.07625e+06  113759  50770.3
   12470  1.08516e+06  115271  51724.6
   12479.5  1.09468e+06  116878  52725
   12489  1.10132e+06  118190  53567.4
   12498.9  1.10772e+06  119525  54428
   12508.4  1.11645e+06  120995  55352.6
   12518.3  1.12483e+06  122455  56279.3
   12528.2  1.13151e+06  123666  57103.1
   12538.1  1.14045e+06  125222  58088.9
   12548.1  1.14709e+06  126491  58945.9
   12558.4  1.15634e+06  128095  59993.9
   12568.7  1.1637e+06  129560  60986
   12578.7  1.1721e+06  131052  62018.1
   12589.1  1.17819e+06  132342  62961.4
   12599.4  1.18636e+06  133836  64023.7
   12610.2  1.19313e+06  135172  65027.1
   12620.6  1.20128e+06  136712  66131.6
   12631.3  1.20657e+06  138112  67185.1
   12642.1  1.21431e+06  139804  68376.8
   12652.9  1.22186e+06  141315  69457.5
   12663.8  1.22836e+06  142652  70481.3
   12674.6  1.23351e+06  143921  71446.2
   12685.8  1.24047e+06  145438  72598
   12696.7  1.24642e+06  146847  73666.1
   12708  1.25328e+06  148394  74844.2
   12719.3  1.26193e+06  150233  76192.4
   12730.6  1.26317e+06  151186  77096.6
   12741.9  1.26977e+06  152777  78337
   12753.6  1.27556e+06  154284  79567.4
   12764.9  1.28426e+06  156051  80920.9
   12776.7  1.28879e+06  157328  82075.4
   12788.4  1.29592e+06  158996  83419.1
   12800.2  1.30008e+06  160286  84562.8
   12812  1.30305e+06  161447  85638.6
   12824.2  1.3097e+06  163134  86990.5
   12836  1.31521e+06  164567  88247.4
   12848.2  1.32261e+06  166336  89705.5
   12860.5  1.32393e+06  167339  90742.5
   12872.4  1.33193e+06  169244  92281.7
   12885.1  1.3347e+06  170548  93528