Folder: XASDataLibrary/data/As (part 4)

File: as2s3_10K_scan2.xdi
# XDI/1.0
# Column.1: energy eV
# Column.2: i0
# Column.3: itrans
# Column.4: irefer
# Beamline.name: SSRL 2-3
# Beamline.notes: vert slits = 0.6mm
# Detector.I0: N2 15cm
# Detector.I1: Ar 30cm
# Detector.I2: Ar 15cm
# Element.edge: K
# Element.symbol: As
# Mono.d_spacing: 3.13550
# Mono.name: Si(111)
# Mono.notes: unfocused, detuned 75%, clockwise at E=12000eV
# Sample.formula: As2S3
# Sample.name: As2S3 arsenious sulfide (orpiment)
# Sample.prep: powder on tape (5 layers)
# Sample.reference: GaAs powder
# Sample.temperature: 10K
# Scan.start_time: 1997-04-19 16:23:01
# ///
#    Note: mono d_spacing is nominal!
#     exafs to K16, GaAs in IR
#     413  E XMU XMUR I0
#-------------
#   energy   i0   itrans  irefer
   11634.9  567867  90474.5  37208
   11654.9  562538  90351.5  37598
   11675.1  556485  90102.5  37939
   11695  549779  89730.5  38235
   11714.9  545454  89713.5  38668
   11735  540170  89535.5  39040
   11755.1  534127  89216.5  39334
   11775  529336  89037.5  39704
   11794.9  523269  88641.5  39977
   11814.9  517734  88245.5  40225
   11835  512600  87659.5  40348
   11845.4  509083  86811.5  40079
   11846.6  509068  86745.5  40047
   11847.5  508303  86577.5  39974
   11848.4  508348  86487.5  39934
   11849.6  507610  86259.5  39829
   11850.6  507070  86062.5  39725
   11851.5  506275  85817.5  39614
   11852.4  505752  85617.5  39522
   11853.6  505928  85407.5  39400
   11854.5  506088  85226.5  39302
   11855.4  505767  84952.5  39157
   11856.4  505785  84645.5  38985
   11857.6  505606  84111.5  38662
   11858.5  505140  83543.5  38353
   11859.4  505282  82971.5  38008
   11860.6  504353  81705.5  37266
   11861.6  504676  80656.5  36650
   11862.5  503766  78882.5  35611
   11863.4  504383  76823.5  34387
   11864.6  503230  71671.5  31415
   11865.5  502820  65316.5  27873
   11866.5  501864  56649.5  23306
   11867.4  502307  44254.5  17245
   11868.6  502123  26932.5  9469
   11869.5  502321  18050.5  5713
   11870.5  501795  14578.5  4096
   11871.4  501281  16911.5  4548
   11872.6  500590  24973.5  6768
   11873.5  499766  30909.5  8515
   11874.4  499750  34562.5  9654
   11875.4  499807  35939.5  10210
   11876.6  500053  35096.5  10254
   11877.5  499720  34149.5  10237
   11878.4  500101  33755.5  10365
   11879.4  499258  33807.5  10568
   11880.6  499710  34391.5  10916
   11881.5  498609  34754.5  11123
   11882.4  498931  35149.5  11307
   11883.7  498150  35531.5  11465
   11884.6  497683  35802.5  11548
   11885.5  496800  35984.5  11601
   11886.4  496623  36179.5  11662
   11887.6  496331  36431.5  11762
   11888.6  496521  36636.5  11848
   11889.5  496851  36887.5  11932
   11890.4  496240  37093.5  11998
   11891.6  496201  37479.5  12114
   11892.6  496247  37798.5  12208
   11893.5  496163  38081.5  12300
   11894.4  495318  38332.5  12404
   11895.6  495494  38763.2  12607.8
   11896.9  495261  39130.3  12825.8
   11898.4  495365  39609.4  13051
   11899.7  495108  39910.4  13159.2
   11901.2  496170  40327.6  13258.5
   11903  495971  40564.7  13307.9
   11904.6  496666  40697.9  13363.4
   11906.4  497206  40710.1  13403.9
   11908.3  498483  40632.4  13406.6
   11910.1  499780  40456.6  13369.3
   11912.3  500992  40034  13212
   11914.2  502565  39645.3  13059.9
   11916.3  503687  39070.7  12859.8
   11918.8  505232  38476.1  12726.8
   11921  507673  38136.5  12719.9
   11923.4  510250  37911  12730.1
   11925.9  511746  37782.5  12720.3
   11928.4  514316  37903  12779.6
   11930.9  517621  38180.6  12862
   11933.7  519081  38472.1  12899.5
   11936.4  522348  39104.8  13023.1
   11939.2  525440  39827.4  13212.7
   11942.3  526974  40595.1  13490.4
   11945.1  529809  41431.8  13826.2
   11948.2  536141  42571.5  14251.1
   11951.3  539205  43335.3  14560
   11954.8  543516  44057.2  14863
   11957.9  547481  44542  15110.1
   11961.3  550885  44837.8  15245.3
   11964.7  554759  45050.7  15304.5
   11968.5  560013  45265.7  15404.9
   11971.9  563932  45334.7  15564.3
   11975.6  568441  45400.6  15775.8
   11979.4  573269  45474.7  15888.3
   11983.1  578582  45593.7  15949
   11987.2  580637  45488.8  15908.7
   11991.3  587340  45808.9  15929.5
   11995.3  592389  46138.1  15922.4
   11999.4  597990  46669.2  16025.3
   12003.5  603069  47349.5  16269.4
   12007.9  609043  48305.7  16683.4
   12012.3  611755  49134.9  17050.6
   12016.7  619476  50413.3  17608.9
   12021.1  626235  51551.6  18103.2
   12025.8  631672  52446  18550.7
   12030.5  638229  53177.4  18911.2
   12035.3  644189  53757.8  19205.7
   12040  650945  54311.2  19492.4
   12045  657088  54724.7  19723.1
   12050.1  662549  55048.2  19924.9
   12055.2  668574  55401.8  20073.8
   12060.2  675757  55871.4  20191.8
   12065.3  684663  56515  20481.8
   12070.7  691215  57009.7  20721.9
   12076.1  698454  57646.3  20934.1
   12081.5  705166  58365  21138.4
   12086.9  711483  59110.7  21392.7
   12092.6  720830  60206.5  21845.2
   12098.3  726947  61121.3  22331.7
   12104.1  734136  62151.2  22873.3
   12109.8  740388  63143  23380.9
   12115.9  748917  64331.9  24002.6
   12121.6  758847  65573.8  24638.5
   12127.7  763328  66262.8  25059.4
   12133.8  774465  67446.8  25614.3
   12140.2  781920  68260.7  25956.4
   12146.3  789827  68996.8  26214.5
   12152.8  798494  69778.9  26518.7
   12159.2  805455  70388  26790
   12165.6  811262  70921.2  27058.4
   12172.4  818286  71655.3  27440.8
   12178.9  826304  72521.5  27886.3
   12185.7  835277  73581.8  28368.9
   12192.5  843796  74679  28915.6
   12199.6  854271  76029.3  29582.3
   12206.4  863759  77313.6  30221.1
   12213.5  873527  78650  30919
   12220.7  881893  79871.4  31617
   12227.8  890027  81040.8  32289.1
   12235  896405  82002.2  32828.2
   12242.5  903749  83045.7  33405.4
   12250  914596  84386.2  34031.7
   12257.5  922685  85427.8  34490.1
   12265.1  930587  86428.3  34957.5
   12272.6  941918  87728.9  35597.1
   12280.5  949583  88680.6  36092.7
   12288.4  959756  89869.2  36728.3
   12296.3  968638  90987  37377.1
   12304.2  974965  91901.7  37961.9
   12312.1  984397  93163.5  38675.9
   12320.4  993042  94409.3  39411.9
   12328.7  1.00166e+06  95708  40153.9
   12336.6  1.01215e+06  97198.9  41000.1
   12345.2  1.02148e+06  98617.8  41830.3
   12353.5  1.03306e+06  100272  42715.6
   12362.2  1.04059e+06  101543  43444
   12370.5  1.05024e+06  102980  44252.4
   12379.2  1.05826e+06  104244  44994
   12387.9  1.06674e+06  105523  45702.6
   12396.9  1.07531e+06  106793  46425.3
   12405.6  1.08495e+06  108155  47218.1
   12414.7  1.09275e+06  109343  47933.9
   12423.8  1.10155e+06  110609  48694.8
   12432.8  1.10739e+06  111658  49418.8
   12441.9  1.11711e+06  113107  50309.9
   12451.4  1.12697e+06  114622  51287
   12460.5  1.13318e+06  115784  52087.3
   12470  1.14428e+06  117502  53153.6
   12479.5  1.14985e+06  118683  53968
   12489  1.15951e+06  120279  54964.5
   12498.9  1.1644e+06  121443  55739
   12508.4  1.17598e+06  123251  56810.6
   12518.3  1.18298e+06  124616  57726.3
   12528.2  1.19057e+06  126022  58659.1
   12538.1  1.19923e+06  127550  59653
   12548.1  1.20575e+06  128834  60531.9
   12558.4  1.21162e+06  130046  61417.9
   12568.7  1.21886e+06  131381  62377
   12578.7  1.22779e+06  132934  63433.2
   12589.1  1.23575e+06  134410  64470.4
   12599.4  1.24272e+06  135770  65496.7
   12610.2  1.24932e+06  137143  66562.1
   12620.6  1.25601e+06  138582  67606.6
   12631.3  1.26441e+06  140247  68797.1
   12642.1  1.27072e+06  141664  69876.8
   12652.9  1.27783e+06  143240  71000.5
   12663.8  1.28236e+06  144511  72003.3
   12674.6  1.29151e+06  146318  73269.1
   12685.8  1.295e+06  147491  74234.1
   12696.7  1.30457e+06  149304  75541.1
   12708  1.30833e+06  150520  76558.2
   12719.3  1.31608e+06  152148  77822.4
   12730.6  1.32028e+06  153369  78868.6
   12741.9  1.32695e+06  154885  80093.9
   12753.6  1.33123e+06  156161  81206.4
   12764.9  1.3375e+06  157665  82443.9
   12776.7  1.34438e+06  159295  83769.4
   12788.4  1.35049e+06  160841  85058
   12800.2  1.353e+06  162014  86163.8
   12812  1.35556e+06  163162  87256.6
   12824.2  1.36028e+06  164634  88527.4
   12836  1.36358e+06  165903  89670.4
   12848.2  1.36371e+06  166817  90676.4
   12860.5  1.36849e+06  168295  92017.5
   12872.4  1.36375e+06  168620  92682.7
   12885.1  1.36431e+06  169580  93750

File: as2s3_10K_scan3.xdi
# XDI/1.0
# Column.1: energy eV
# Column.2: i0
# Column.3: itrans
# Column.4: irefer
# Beamline.name: SSRL 2-3
# Beamline.notes: vert slits = 0.6mm
# Detector.I0: N2 15cm
# Detector.I1: Ar 30cm
# Detector.I2: Ar 15cm
# Element.edge: K
# Element.symbol: As
# Mono.d_spacing: 3.13550
# Mono.name: Si(111)
# Mono.notes: unfocused, detuned 75%, clockwise at E=12000eV
# Sample.formula: As2S3
# Sample.name: As2S3 arsenious sulfide (orpiment)
# Sample.prep: powder on tape (5 layers)
# Sample.reference: GaAs powder
# Sample.temperature: 10K
# Scan.start_time: 1997-04-19 16:23:01
# ///
#    Note: mono d_spacing is nominal!
#     exafs to K16, GaAs in IR
#     413  E XMU XMUR I0
#-------------
#   energy   i0   itrans  irefer
   11634.9  553511  88214.5  36276
   11654.9  548612  88148.5  36683
   11675.1  543773  88079.5  37092
   11695  536227  87526.5  37274
   11714.9  532276  87565.5  37733
   11735  527960  87529.5  38160
   11755.1  521620  87119.5  38422
   11775  516199  86870.5  38726
   11794.9  511671  86686.5  39088
   11814.9  505185  86124.5  39266
   11835  500924  85673.5  39420
   11845.4  497258  84809.5  39136
   11846.6  497065  84695.5  39097
   11847.5  498033  84803.5  39150
   11848.4  497224  84598.5  39050
   11849.6  497082  84477.5  39001
   11850.6  495804  84132.5  38836
   11851.5  494768  83863.5  38712
   11852.4  493502  83507.5  38538
   11853.6  494290  83420.5  38476
   11854.5  493014  82996.5  38260
   11855.4  494584  83018.5  38251
   11856.4  492859  82423.5  37944
   11857.6  493149  81970.5  37676
   11858.5  492011  81305.5  37298
   11859.4  494225  81082.5  37130
   11860.6  492292  79634.5  36313
   11861.6  492837  78605.5  35679
   11862.5  491308  76733.5  34606
   11863.4  492201  74686.5  33385
   11864.6  491058  69329.5  30310
   11865.5  490183  62884.5  26739
   11866.5  489667  54307.5  22246
   11867.4  489201  41920.5  16240
   11868.6  489453  25262.5  8811
   11869.5  489076  16993.5  5313
   11870.5  490233  14281.5  3988
   11871.4  488028  16889.5  4540
   11872.6  488301  24890.5  6762
   11873.5  486287  30505.5  8409
   11874.4  487476  33885.5  9475.99
   11875.4  486773  35004.5  9962
   11876.6  487399  34134.5  9997
   11877.5  486609  33220.5  9981
   11878.4  487456  32903.5  10125
   11879.4  486531  32972.5  10317
   11880.6  487549  33605.5  10677
   11881.5  486819  33968.5  10876
   11882.4  487305  34350.5  11051
   11883.7  485640  34667.5  11187
   11884.6  486210  34993.5  11291
   11885.5  485343  35178.5  11345
   11886.4  484694  35345.5  11401
   11887.6  484679  35584.5  11494
   11888.6  485159  35816.5  11588
   11889.5  486893  36180.5  11709
   11890.4  485347  36313.5  11749
   11891.6  486337  36761.5  11876
   11892.6  484459  36921.5  11917
   11893.5  485538  37300.5  12043
   11894.4  484566  37522.5  12145
   11895.6  484881  37959.3  12357.8
   11896.9  484216  38293.3  12547.8
   11898.4  485501  38849.3  12802
   11899.7  484975  39120.4  12892.2
   11901.2  486125  39518.6  12991.5
   11903  486162  39759.7  13040.9
   11904.6  487150  39917.9  13105.4
   11906.4  488015  39950.1  13152.9
   11908.3  487987  39776.4  13124.6
   11910.1  489853  39633.6  13091.3
   11912.3  490762  39203  12938
   11914.2  493622  38917.3  12817.9
   11916.3  494269  38298.7  12602.8
   11918.8  495765  37722.1  12482.8
   11921  496658  37297.5  12443.9
   11923.4  499522  37109  12458.1
   11925.9  501114  36995.5  12450.3
   11928.4  502969  37063  12487.7
   11930.9  505997  37323.6  12563
   11933.7  506362  37540.1  12575.5
   11936.4  508850  38106.8  12684.1
   11939.2  512047  38833.4  12880.7
   11942.3  512250  39491.1  13123.4
   11945.1  517136  40455.8  13499.2
   11948.2  522208  41482.5  13889.1
   11951.3  524250  42159.3  14171
   11954.8  528880  42881.1  14465
   11957.9  532497  43327  14692.1
   11961.3  535530  43579.8  14816.3
   11964.7  541180  43938.7  14916.5
   11968.5  544223  43988.7  14963.9
   11971.9  549918  44202.6  15175.3
   11975.6  554214  44249.6  15377.8
   11979.4  561258  44530.7  15549.3
   11983.1  566568  44652.7  15620
   11987.2  569545  44619.8  15593.7
   11991.3  576301  44944.9  15616.5
   11995.3  583101  45401  15658.4
   11999.4  589691  46019.2  15785.3
   12003.5  593868  46619.4  16006.4
   12007.9  599854  47573.7  16420.4
   12012.3  602694  48392.9  16785.6
   12016.7  612037  49790.3  17374.9
   12021.1  618121  50859.6  17849.2
   12025.8  624837  51864.9  18319.7
   12030.5  631652  52618.4  18695.2
   12035.3  638504  53269.8  19020.7
   12040  645268  53827.2  19307.4
   12045  651352  54248.7  19534.1
   12050.1  657333  54603.2  19758.9
   12055.2  663462  54963.8  19891.8
   12060.2  669690  55371.4  19994.8
   12065.3  679706  56098  20307.8
   12070.7  687123  56678.6  20589.9
   12076.1  693921  57272.3  20785.1
   12081.5  700338  57951  20969.4
   12086.9  706610  58694.7  21212.7
   12092.6  715379  59755.5  21660.2
   12098.3  719585  60490.3  22094.7
   12104.1  726203  61478.2  22600.3
   12109.8  734119  62589  23149.9
   12115.9  742047  63735.9  23758.6
   12121.6  750231  64822.8  24344.5
   12127.7  756517  65668.8  24825.4
   12133.8  767532  66847.8  25368.3
   12140.2  773273  67502.8  25655.4
   12146.3  782425  68363.8  25954.5
   12152.8  791360  69141.9  26261.7
   12159.2  799788  69876  26570
   12165.6  806502  70510.1  26892.4
   12172.4  815612  71422.3  27342.8
   12178.9  824971  72406.5  27829.3
   12185.7  832187  73308.7  28248.9
   12192.5  840213  74375  28767.6
   12199.6  850040  75650.3  29416.3
   12206.4  857708  76771.6  29982.1
   12213.5  865481  77931  30617
   12220.7  873790  79106.4  31282
   12227.8  883651  80434.8  32024.1
   12235  891952  81588.3  32646.2
   12242.5  899582  82661.7  33233.4
   12250  908536  83815.2  33786.7
   12257.5  918079  84987.8  34280.1
   12265.1  926080  85998.3  34770.5
   12272.6  934799  87041  35299.1
   12280.5  944636  88205.6  35879.7
   12288.4  952234  89146.3  36408.4
   12296.3  960620  90203.9  37043.1
   12304.2  969596  91378.7  37730
   12312.1  978214  92549.4  38397.9
   12320.4  986122  93726.3  39083.9
   12328.7  993641  94921  39810.9
   12336.6  1.00118e+06  96129.9  40526.1
   12345.2  1.01005e+06  97509.8  41333.3
   12353.5  1.01955e+06  98948.7  42112.6
   12362.2  1.02883e+06  100375  42929
   12370.5  1.03227e+06  101220  43479.5
   12379.2  1.0383e+06  102273  44124
   12387.9  1.04191e+06  103066  44623.6
   12396.9  1.04618e+06  103899  45156.3
   12405.6  1.05394e+06  105064  45836
   12414.7  1.06144e+06  106190  46523.9
   12423.8  1.06649e+06  107090  47130.8
   12432.8  1.07674e+06  108556  48020.8
   12441.9  1.08598e+06  109937  48886.9
   12451.4  1.09385e+06  111260  49776
   12460.5  1.10125e+06  112530  50622.3
   12470  1.11009e+06  114009  51554.6
   12479.5  1.11907e+06  115506  52518
   12489  1.12589e+06  116829  53369.5
   12498.9  1.1345e+06  118314  54296
   12508.4  1.14298e+06  119802  55211.6
   12518.3  1.15197e+06  121358  56205.3
   12528.2  1.1595e+06  122742  57120.1
   12538.1  1.16609e+06  124023  57980
   12548.1  1.17494e+06  125542  58978.9
   12558.4  1.18144e+06  126822  59878.9
   12568.7  1.18909e+06  128216  60854
   12578.7  1.19829e+06  129758  61897.1
   12589.1  1.20559e+06  131131  62903.4
   12599.4  1.20886e+06  132096  63717.7
   12610.2  1.21585e+06  133503  64764.1
   12620.6  1.22134e+06  134761  65728.6
   12631.3  1.22899e+06  136304  66853.1
   12642.1  1.23278e+06  137470  67786.8
   12652.9  1.2383e+06  138814  68809.5
   12663.8  1.24396e+06  140207  69839.3
   12674.6  1.25083e+06  141739  70957.2
   12685.8  1.25517e+06  142946  71929.1
   12696.7  1.26307e+06  144552  73119.1
   12708  1.26995e+06  146088  74284.2
   12719.3  1.27467e+06  147355  75345.4
   12730.6  1.28298e+06  149020  76598.6
   12741.9  1.2941e+06  151042  78083.9
   12753.6  1.30118e+06  152637  79360.4
   12764.9  1.3072e+06  154078  80536.8
   12776.7  1.3121e+06  155450  81737.4
   12788.4  1.31861e+06  157036  83032.1
   12800.2  1.32238e+06  158356  84197.8
   12812  1.32891e+06  159952  85537.6
   12824.2  1.33227e+06  161240  86704.4
   12836  1.34163e+06  163236  88236.4
   12848.2  1.34813e+06  164890  89612.5
   12860.5  1.35576e+06  166711  91107.6
   12872.4  1.35823e+06  167891  92212.8
   12885.1  1.37022e+06  170282  94106

File: as2s3_100K_scan2.xdi
# XDI/1.0
# Column.1: energy eV
# Column.2: i0
# Column.3: itrans
# Column.4: irefer
# Beamline.name: SSRL 2-3
# Beamline.notes: vert slits = 0.6mm
# Detector.I0: N2 15cm
# Detector.I1: Ar 30cm
# Detector.I2: Ar 15cm
# Element.edge: K
# Element.symbol: As
# Mono.d_spacing: 3.13550
# Mono.name: Si(111)
# Mono.notes: unfocused, detuned 75%, clockwise at E=12000eV
# Sample.formula: As2S3
# Sample.name: As2S3 arsenious sulfide (orpiment)
# Sample.prep: powder on tape (5 layers)
# Sample.reference: GaAs powder
# Sample.temperature: 100K
# Scan.start_time: 1997-04-19 22:41:20
# ///
#    Note: mono d_spacing is nominal!
#     exafs to K16, GaAs in IR
#     413  E XMU XMUR I0
#-------------
#   energy   i0   itrans  irefer
   11634.9  518893  92592.5  37762
   11654.9  513109  92241.5  38067
   11675.1  508326  92055.5  38437
   11695  502367  91630.5  38708
   11714.9  497389  91394.5  39063
   11735  492279  91136.5  39392
   11755.1  486941  90777.5  39700
   11775  482332  90533.5  40053
   11794.9  477434  90216.5  40356
   11814.9  471925  89701.5  40549
   11835  467263  89157.5  40692
   11845.4  464800  88516.5  40518
   11846.6  464593  88421.5  40475
   11847.5  464289  88328.5  40436
   11848.4  463655  88152.5  40358
   11849.6  462931  87906.5  40243
   11850.6  461949  87669.5  40127
   11851.5  462317  87619.5  40081
   11852.4  462459  87529.5  40029
   11853.6  462791  87392.5  39958
   11854.5  462412  87103.5  39778
   11855.4  462635  86920.5  39649
   11856.4  462252  86546.5  39421
   11857.6  462029  85958.5  39066
   11858.5  462094  85460.5  38732
   11859.4  461439  84647.5  38239
   11860.6  461201  83220.5  37315
   11861.6  460846  81700.5  36353
   11862.5  460397  79308.5  34829
   11863.4  459668  75851.5  32671
   11864.6  459394  67153.5  27532
   11865.5  459270  56996.5  22070
   11866.5  459427  44798.5  16118
   11867.4  459423  32633.5  10600
   11868.6  459460  24575.5  6922
   11869.5  459283  25923.5  6953
   11870.5  458729  31573.5  8453
   11871.4  458447  38139.5  10324
   11872.6  457134  45120.5  12471
   11873.5  457446  47286.5  13273
   11874.4  457645  47336.5  13528
   11875.4  457746  46465.5  13607
   11876.6  457350  45549.5  13803
   11877.5  457573  45534.5  14076
   11878.4  457068  45809.5  14362
   11879.4  457045  46216.5  14623
   11880.6  456263  46660.5  14899
   11881.5  455926  46958.5  15045
   11882.4  456256  47249.5  15160
   11883.7  455774  47559.5  15245
   11884.6  454542  47642.5  15266
   11885.5  454623  47845.5  15346
   11886.4  454700  48030.5  15429
   11887.6  454941  48333.5  15547
   11888.6  455112  48569.5  15615
   11889.5  454655  48790.5  15679
   11890.4  454125  48985.5  15732
   11891.6  454320  49377.5  15842
   11892.6  453871  49614.5  15932
   11893.5  453716  49867.5  16067
   11894.4  453483  50120.5  16209
   11895.6  453392  50469.2  16445.8
   11896.9  453034  50770.3  16625.8
   11898.4  453328  51174.4  16763
   11899.7  453234  51394.5  16792.2
   11901.2  453200  51620.6  16827.5
   11903  454309  51884.7  16915.9
   11904.6  454829  51957.9  16975.4
   11906.4  455294  51918.1  17009.9
   11908.3  456835  51886.4  17022.6
   11910.1  457483  51617.6  16938.3
   11912.3  459051  51277  16789
   11914.2  459648  50852.3  16624.9
   11916.3  462033  50524.7  16540.8
   11918.8  462724  50023.1  16519.8
   11921  465123  49882.5  16603.9
   11923.4  466245  49693  16611.1
   11925.9  469050  49843.5  16698.3
   11928.4  470559  50011  16749.6
   11930.9  473263  50389.5  16840
   11933.7  476099  50953.1  16935.5
   11936.4  478433  51636.8  17056.1
   11939.2  481279  52440.4  17291.7
   11942.3  482210  53167.1  17596.4
   11945.1  486970  54272.8  18032.2
   11948.2  491115  55279.6  18425.1
   11951.3  493859  56030.3  18735
   11954.8  496804  56642.1  19030
   11957.9  501990  57358  19359.1
   11961.3  504636  57645.8  19472.3
   11964.7  509079  58033.7  19590.6
   11968.5  513355  58336.7  19775.9
   11971.9  517272  58561.6  20067.3
   11975.6  520707  58692.6  20310.8
   11979.4  525748  58998.6  20497.3
   11983.1  529644  59199.7  20595
   11987.2  532157  59252.8  20561.7
   11991.3  539151  59916.9  20663.5
   11995.3  544085  60464.1  20704.4
   11999.4  549171  61188.2  20861.3
   12003.5  553684  62025.5  21205.4
   12007.9  558393  63050.7  21656.5
   12012.3  562366  64087.9  22133.6
   12016.7  570471  65629.3  22796.9
   12021.1  575557  66719.6  23313.2
   12025.8  580874  67723.9  23817.6
   12030.5  586447  68542.4  24242.2
   12035.3  593566  69442.8  24671.7
   12040  598767  70076.2  25015.4
   12045  605442  70782.7  25375.1
   12050.1  610481  71283.2  25664.9
   12055.2  615213  71734.8  25803.8
   12060.2  623095  72590.4  26073.8
   12065.3  630209  73373  26442.8
   12070.7  637151  74183.6  26804.9
   12076.1  642858  74950.3  27020.1
   12081.5  648802  75818  27268.4
   12086.9  655911  76919.7  27666.7
   12092.6  663794  78186.5  28244.2
   12098.3  670588  79401.3  28883.7
   12104.1  677668  80688.2  29551.3
   12109.8  684459  81928  30194.9
   12115.9  692769  83369.9  30972.7
   12121.6  699460  84544.8  31629.5
   12127.7  706319  85675.8  32241.4
   12133.8  714344  86881.8  32808.3
   12140.2  721951  87975.8  33238.4
   12146.3  729183  88913.8  33585.5
   12152.8  736055  89831.9  33952.7
   12159.2  744018  90840  34388
   12165.6  750546  91741.1  34822.4
   12172.4  758966  92888.4  35396.8
   12178.9  767868  94216.6  36037.3
   12185.7  775520  95450.8  36605.9
   12192.5  783156  96754  37263.6
   12199.6  789733  98006.3  37938.3
   12206.4  798384  99517.6  38701.1
   12213.5  807586  101133  39562.1
   12220.7  814631  102480  40356
   12227.8  823084  103993  41225.1
   12235  830705  105347  41955.2
   12242.5  839803  106893  42781.4
   12250  847138  108185  43409.7
   12257.5  852884  109252  43869.1
   12265.1  863291  110878  44618.6
   12272.6  872047  112275  45319.1
   12280.5  879395  113493  45959.7
   12288.4  889425  115083  46797.4
   12296.3  896883  116373  47583.1
   12304.2  905335  117865  48448.9
   12312.1  913898  119366  49305.9
   12320.4  921781  120847  50172.9
   12328.7  929074  122345  51079.9
   12336.6  936864  123862  51982.1
   12345.2  946586  125712  53042.3
   12353.5  954526  127318  53948.6
   12362.2  961718  128820  54819
   12370.5  971012  130580  55834.4
   12379.2  979646  132251  56774
   12387.9  986724  133679  57599.6
   12396.9  995944  135396  58561.3
   12405.6  1.00359e+06  136880  59437.1
   12414.7  1.01243e+06  138535  60412.9
   12423.8  1.02124e+06  140204  61441.8
   12432.8  1.02784e+06  141588  62347.8
   12441.9  1.03693e+06  143373  63485.9
   12451.4  1.04549e+06  145115  64634.1
   12460.5  1.05289e+06  146739  65710.3
   12470  1.06266e+06  148716  66952.6
   12479.5  1.06818e+06  150137  67957
   12489  1.07777e+06  152140  69196.5
   12498.9  1.08398e+06  153654  70194
   12508.4  1.0919e+06  155472  71350.6
   12518.3  1.09876e+06  157101  72427.4
   12528.2  1.10554e+06  158735  73532.1
   12538.1  1.11596e+06  160868  74874
   12548.1  1.12361e+06  162591  76035.9
   12558.4  1.12793e+06  163878  77015.9
   12568.7  1.13527e+06  165593  78236
   12578.7  1.14489e+06  167638  79595.2
   12589.1  1.15107e+06  169213  80789.4
   12599.4  1.15837e+06  170983  82105.7
   12610.2  1.16479e+06  172656  83379.2
   12620.6  1.17304e+06  174623  84794.6
   12631.3  1.17941e+06  176293  86067.1
   12642.1  1.18568e+06  178018  87372.8
   12652.9  1.19131e+06  179707  88654.5
   12663.8  1.19917e+06  181693  90089.3
   12674.6  1.20341e+06  183125  91273.1
   12685.8  1.20941e+06  184849  92606
   12696.7  1.21851e+06  187039  94191.1
   12708  1.2221e+06  188410  95384.2
   12719.3  1.23039e+06  190478  96986.4
   12730.6  1.23883e+06  192591  98577.6
   12741.9  1.24468e+06  194298  100034
   12753.6  1.25015e+06  195990  101456
   12764.9  1.25672e+06  197864  103008
   12776.7  1.26334e+06  199772  104581
   12788.4  1.26881e+06  201540  106133
   12800.2  1.27453e+06  203368  107659
   12812  1.27654e+06  204575  108947
   12824.2  1.28016e+06  206138  110391
   12836  1.28669e+06  208105  112027
   12848.2  1.29522e+06  210437  113897
   12860.5  1.30006e+06  212255  115491
   12872.4  1.3025e+06  213588  116886
   12885.1  1.31026e+06  215860  118806