Folder: XASDataLibrary/data/As

Note: README
The XAS Data Library is designed to hold X-ray Absorption Spectra (EXAFS
and XANES) using an SQLite database, with array data encoded using JSON.
The principle goal for the library is as a proposed standard for storing
and exchanging XAS data. The implementation here is intended for initial
reference and comments. 

The idea is provide a format and set of tools for managing Libraries of
XAFS Data, and to be able to share these libraries between different
researchers and different analysis programs.  As the the base format of the
library will be created with SQLite, the SQL syntax and any third party
software that can use SQL and SQLite will be able to explore the data in
the format.  In addition, reference implementations of programmatically
interecting with the library will be provided.  

Ideally, a stand-alone GUI Data Browser and an on-line Library will be
built upon such a format.

See http://xafs.org/XasDataLibrary for additional information.


--Matt Newville  18-Feb-2011

File: as2o3_10K_scan3.xdi
# XDI/1.0
# Column.1: energy eV
# Column.2: i0
# Column.3: itrans
# Column.4: irefer
# Beamline.name: SSRL 2-3
# Beamline.notes: vert slits = 0.6mm
# Detector.I0: N2 15cm
# Detector.I1: Ar 30cm
# Detector.I2: Ar 15cm
# Element.edge: K
# Element.symbol: As
# Mono.d_spacing: 3.13550
# Mono.name: Si(111)
# Mono.notes: unfocused, detuned 75%, clockwise at E=12000eV
# Sample.formula: As2O3
# Sample.name: As2O3 arsenious oxide
# Sample.prep: powder on tape (5 layers)
# Sample.reference: GaAs powder
# Sample.temperature: 10K
# Scan.start_time: 1997-04-19 19:47:10
# ///
#    Note: mono d_spacing is nominal!
#     exafs to K16, GaAs in IR
#     413  E XMU XMUR I0
#-------------
#   energy   i0   itrans  irefer
   11634.9  534204  60646.5  24869
   11654.9  529036  60631.5  25156
   11675.1  523828  60603.5  25443
   11695  517618  60453.5  25673
   11714.9  513172  60480.5  25976
   11735  507781  60363.5  26223
   11755.1  502815  60288.5  26491
   11775  497622  60157.5  26733
   11794.9  492579  59935.5  26929
   11814.9  486739  59437.5  26998
   11835  482140  58470.5  26805
   11845.4  479220  56991.5  26206
   11846.6  479152  56769.5  26119
   11847.5  479898  56672.5  26062
   11848.4  479059  56364.5  25922
   11849.6  478339  55948.5  25724
   11850.6  477956  55637.5  25581
   11851.5  477784  55302.5  25421
   11852.4  478202  55004.5  25274
   11853.6  477857  54403.5  24978
   11854.5  478592  53940.5  24749
   11855.4  477805  53292.5  24438
   11856.4  477546  52556.5  24067
   11857.6  477472  51347.5  23458
   11858.5  476847  50259.5  22909
   11859.4  476768  48977.5  22252
   11860.6  476857  46713.5  21089
   11861.6  476607  44614.5  20001
   11862.5  476352  41809.5  18556
   11863.4  475691  38441.5  16782
   11864.6  474958  31935.5  13380
   11865.5  474870  25880.5  10328
   11866.5  474807  19229.5  7216
   11867.4  474648  12408.5  4322
   11868.6  474991  5097.5  1600
   11869.5  475060  2195.5   648
   11870.5  474573   856.5   243
   11871.4  473845   591.5   166
   11872.6  473087   885.5   248
   11873.5  473173  1311.5   372
   11874.4  472443  1855.5   533
   11875.4  473161  2586.5   764
   11876.6  473369  3675.5  1118
   11877.5  473243  4193.5  1298
   11878.4  472853  4271.5  1337
   11879.4  472821  3900.5  1232
   11880.6  472270  3058.5   974
   11881.5  472421  2649.5   847
   11882.4  472026  2574.5   823.001
   11883.7  471423  2828.5   905
   11884.6  470578  3080.5   987.001
   11885.5  470436  3275.5  1049
   11886.4  470227  3444.5  1106
   11887.6  470678  3715.5  1196
   11888.6  470879  3943.5  1269
   11889.5  470730  4171.5  1342
   11890.4  470296  4380.5  1406
   11891.6  470097  4786.5  1536
   11892.6  469734  5191.5  1665
   11893.5  469725  5577.5  1798
   11894.4  469022  5861.5  1896
   11895.6  469565  6046.25  1970.76
   11896.9  468946  6080.29  1994.84
   11898.4  469580  6128.35  2011.99
   11899.7  469433  6169.44  2021.23
   11901.2  469847  6265.56  2047.54
   11903  469986  6450.72  2110.93
   11904.6  470949  6599.91  2161.39
   11906.4  471304  6740.12  2210.93
   11908.3  472309  6835.37  2248.56
   11910.1  473291  6647.65  2186.26
   11912.3  475181  6120.96  2009.03
   11914.2  476295  5674.3  1858.89
   11916.3  478398  5409.67  1771.82
   11918.8  479506  5394.08  1784.83
   11921  480693  5364.51  1785.92
   11923.4  483812  5093.97  1705.08
   11925.9  485229  4753.47  1594.32
   11928.4  488116  4619  1546.64
   11930.9  490225  4622.56  1545.04
   11933.7  493046  4582.14  1523.52
   11936.4  495624  4691.76  1548.07
   11939.2  497583  4757.42  1567.7
   11942.3  499503  4611.1  1525.41
   11945.1  504013  4483.81  1484.2
   11948.2  507862  4521.56  1503.06
   11951.3  511559  4817.33  1609.01
   11954.8  514370  5037.14  1690.02
   11957.9  519261  5165.97  1742.12
   11961.3  523284  5396.84  1823.3
   11964.7  526934  5560.74  1878.55
   11968.5  530541  5665.68  1921.88
   11971.9  535024  5810.63  1993.29
   11975.6  539328  5896.62  2042.77
   11979.4  543243  6061.65  2106.34
   11983.1  547062  6394.7  2225.98
   11987.2  550056  6654.79  2316.7
   11991.3  557467  6770.91  2338.5
   11995.3  561875  6854.05  2350.37
   11999.4  566863  6777.23  2313.32
   12003.5  572770  6570.44  2249.35
   12007.9  577495  6305.69  2167.46
   12012.3  581336  6126.95  2116.64
   12016.7  588915  6256.25  2175.9
   12021.1  594306  6426.59  2246.25
   12025.8  601452  6562.95  2311.66
   12030.5  606052  6576.35  2330.16
   12035.3  613421  6631.77  2356.73
   12040  618953  6763.23  2416.38
   12045  625825  6897.72  2477.11
   12050.1  630791  7003.24  2523.92
   12055.2  636367  7180.79  2583.8
   12060.2  644541  7372.38  2653.76
   12065.3  652004  7520.98  2710.8
   12070.7  658688  7419.63  2684.92
   12076.1  665748  7542.31  2725.11
   12081.5  671550  7968.01  2873.39
   12086.9  678868  8300.75  2996.74
   12092.6  687184  8469.51  3070.16
   12098.3  693506  8417.31  3070.67
   12104.1  700272  8350.14  3059.25
   12109.8  707943  8529.01  3146.91
   12115.9  715324  8883.89  3306.65
   12121.6  723023  9071.81  3397.47
   12127.7  730331  9051.77  3414.36
   12133.8  738497  9200.75  3483.33
   12140.2  746172  9505.78  3597.38
   12146.3  753649  9466.81  3579.51
   12152.8  760702  9359.89  3541.71
   12159.2  769279  9109  3443
   12165.6  775326  9297.15  3528.36
   12172.4  784750  9753.31  3711.79
   12178.9  793662  10011.5  3824.31
   12185.7  800919  10383.8  3978.9
   12192.5  809177  10797  4153.57
   12199.6  816305  10970.3  4245.32
   12206.4  825549  11073.6  4306.15
   12213.5  833765  11079  4330.05
   12220.7  841765  11165.4  4394.03
   12227.8  850441  11174.8  4425.09
   12235  858871  11224.3  4467.23
   12242.5  866332  11544.7  4613.44
   12250  874170  12054.2  4828.73
   12257.5  880330  12450.8  4992.1
   12265.1  891132  12925.4  5192.55
   12272.6  900086  13043  5265.08
   12280.5  907147  12954.6  5238.68
   12288.4  918125  13113.3  5326.36
   12296.3  924248  13024  5312.12
   12304.2  936349  13191.7  5413.95
   12312.1  943214  13400.4  5528.86
   12320.4  952500  13704.2  5683.86
   12328.7  960578  14141.1  5900.93
   12336.6  968499  14556.9  6112.08
   12345.2  978087  14553.8  6140.3
   12353.5  986520  14656.7  6208.6
   12362.2  994384  15074.7  6418.98
   12370.5  1.00384e+06  15469.6  6611.44
   12379.2  1.0115e+06  15697.6  6734.97
   12387.9  1.01796e+06  15751.7  6790.58
   12396.9  1.02839e+06  16079.8  6950.28
   12405.6  1.03798e+06  16459.9  7143.05
   12414.7  1.04552e+06  16582  7226.89
   12423.8  1.05543e+06  16759.2  7339.81
   12432.8  1.06149e+06  17048.4  7504.82
   12441.9  1.07097e+06  17503.6  7751.9
   12451.4  1.07889e+06  17854.8  7958.05
   12460.5  1.08561e+06  18033.1  8073.28
   12470  1.09497e+06  18387.4  8276.59
   12479.5  1.10145e+06  18606.8  8424.98
   12489  1.11256e+06  18862.2  8576.45
   12498.9  1.11944e+06  19028.6  8700.99
   12508.4  1.12653e+06  19214  8821.61
   12518.3  1.13388e+06  19415.5  8957.32
   12528.2  1.14098e+06  19790  9173.1
   12538.1  1.15103e+06  20136.5  9373.95
   12548.1  1.15914e+06  20515.1  9600.88
   12558.4  1.16481e+06  20948.7  9851.89
   12568.7  1.17228e+06  21307.3  10077
   12578.7  1.18083e+06  21673  10300.2
   12589.1  1.18679e+06  21929.7  10473.4
   12599.4  1.1954e+06  22100.4  10610.7
   12610.2  1.20201e+06  22284.1  10771.1
   12620.6  1.20911e+06  22628.9  10991.6
   12631.3  1.21691e+06  22991.7  11220.1
   12642.1  1.22499e+06  23368.6  11472.8
   12652.9  1.23055e+06  23835.5  11764.5
   12663.8  1.23694e+06  24274.4  12047.3
   12674.6  1.24511e+06  24590.3  12258.1
   12685.8  1.25042e+06  24869.3  12456.1
   12696.7  1.25823e+06  25123.3  12649.1
   12708  1.26633e+06  25491.3  12909.2
   12719.3  1.27202e+06  25717.4  13101.4
   12730.6  1.27924e+06  26023.5  13332.6
   12741.9  1.28387e+06  26395.6  13587
   12753.6  1.28961e+06  26891.8  13932.4
   12764.9  1.29383e+06  27239.9  14184.9
   12776.7  1.3018e+06  27694.1  14513.4
   12788.4  1.30831e+06  28083.4  14798.1
   12800.2  1.31329e+06  28452.7  15069.8
   12812  1.31807e+06  28729  15297.6
   12824.2  1.32201e+06  29062.3  15553.5
   12836  1.32933e+06  29447.7  15842.4
   12848.2  1.33719e+06  29908.1  16177.4
   12860.5  1.33995e+06  30257.5  16462.5
   12872.4  1.34417e+06  30595  16742.7
   12885.1  1.3487e+06  31018.5  17064

File: as2o3_100K_scan1.xdi
# XDI/1.0
# Column.1: energy eV
# Column.2: i0
# Column.3: itrans
# Column.4: irefer
# Beamline.name: SSRL 2-3
# Beamline.notes: vert slits = 0.6mm
# Detector.I0: N2 15cm
# Detector.I1: Ar 30cm
# Detector.I2: Ar 15cm
# Element.edge: K
# Element.symbol: As
# Mono.d_spacing: 3.13550
# Mono.name: Si(111)
# Mono.notes: unfocused, detuned 75%, clockwise at E=12000eV
# Sample.formula: As2O3
# Sample.name: As2O3 arsenious oxide
# Sample.prep: powder on tape (2 layers)
# Sample.reference: GaAs powder
# Sample.temperature: 100K
# Scan.start_time: 1997-04-19 23:43:03
# ///
#    Note: mono d_spacing is nominal!
#     exafs to K16, GaAs in IR
#     413  E XMU XMUR I0
#-------------
#   energy   i0   itrans  irefer
   11634.9  514566  94678.5  38613
   11654.9  509390  94407.5  38959
   11675.1  504346  94135.5  39321
   11695  499017  93807.5  39634
   11714.9  494094  93552.5  39984
   11735  489028  93243.5  40305
   11755.1  484094  92931.5  40651
   11775  478930  92541.5  40933
   11794.9  474755  92334.5  41301
   11814.9  469447  91772.5  41485
   11835  464539  91012.5  41527
   11845.4  462196  90184.5  41266
   11846.6  462143  90070.5  41220
   11847.5  461680  89925.5  41151
   11848.4  461087  89712.5  41059
   11849.6  460370  89418.5  40912
   11850.6  460076  89245.5  40824
   11851.5  459990  89102.5  40748
   11852.4  460212  88950.5  40662
   11853.6  459867  88641.5  40471
   11854.5  460276  88452.5  40359
   11855.4  459433  87978.5  40112
   11856.4  459026  87572.5  39860
   11857.6  458881  86904.5  39449
   11858.5  459143  86378.5  39098
   11859.4  458309  85512.5  38564
   11860.6  458747  84254.5  37701
   11861.6  457975  82832.5  36749
   11862.5  457745  80865.5  35342
   11863.4  456349  78146.5  33337
   11864.6  456260  72755.5  29179
   11865.5  455919  66128.5  24587
   11866.5  456933  57260.5  19489
   11867.4  456477  45243.5  14028
   11868.6  457066  28417.5  7960
   11869.5  456382  20414.5  5500
   11870.5  456495  17179.5  4580
   11871.4  455326  18707.5  5041
   11872.6  455295  23923.5  6580
   11873.5  454713  27931.5  7821
   11874.4  455049  31610.5  9040.01
   11875.4  454644  35274.5  10356
   11876.6  454788  39196.5  11881
   11877.5  454480  40358.5  12441
   11878.4  454487  39886.5  12445
   11879.4  453978  38163.5  11999
   11880.6  454190  35474.5  11244
   11881.5  453440  34478.5  10967
   11882.4  453329  34675.5  11038
   11883.7  452155  35877.5  11412
   11884.6  451783  36795.5  11706
   11885.5  451037  37409.5  11920
   11886.4  451199  38049.5  12136
   11887.6  450913  39029.5  12466
   11888.6  451258  39818.5  12718
   11889.5  450913  40517.5  12935
   11890.4  450876  41208.5  13149
   11891.6  451004  42444.5  13530
   11892.6  450329  43474.5  13879
   11893.5  450776  44392.5  14210
   11894.4  450227  44907.5  14448
   11895.6  450442  45209.2  14655.8
   11896.9  449971  45237.3  14729.8
   11898.4  450573  45427.4  14801
   11899.7  450083  45499.4  14786.2
   11901.2  450869  45872.6  14871.5
   11903  451262  46366.7  15041.9
   11904.6  452523  46790.9  15204.4
   11906.4  452705  47109.1  15348.9
   11908.3  453736  47274.4  15438.6
   11910.1  454715  46783.7  15270.3
   11912.3  456177  45712  14885
   11914.2  457251  44882.3  14591.9
   11916.3  458686  44485.7  14492.8
   11918.8  459607  44518.1  14630.8
   11921  461979  44462.5  14723.9
   11923.4  463576  43778  14554.1
   11925.9  465218  43081.5  14339.3
   11928.4  467723  42977  14305.6
   11930.9  470218  43084.6  14306
   11933.7  472958  43189.1  14255.5
   11936.4  475340  43638.8  14318.1
   11939.2  477783  43886.4  14378.7
   11942.3  478983  43553.1  14330.4
   11945.1  483636  43641.8  14406.2
   11948.2  487990  44308.6  14674.1
   11951.3  491294  45375.3  15078
   11954.8  494387  46148.2  15411
   11957.9  498052  46784  15695.1
   11961.3  500851  47588.8  15972.3
   11964.7  505804  48375.7  16223.5
   11968.5  509394  48997.7  16510.9
   11971.9  513227  49622.7  16911.3
   11975.6  518234  50317.6  17316.8
   11979.4  522397  51127.6  17658.3
   11983.1  526026  52177.7  18041
   11987.2  528750  52900.8  18244.7
   11991.3  536622  53822.9  18441.5
   11995.3  540075  54243  18451.4
   11999.4  545836  54525.2  18481.3
   12003.5  550470  54426.5  18493.4
   12007.9  554893  54208.7  18509.5
   12012.3  559373  54235  18621.6
   12016.7  567027  55066.3  19019.9
   12021.1  572065  55707.6  19355.3
   12025.8  577654  56349.9  19719.7
   12030.5  583423  56848.4  19988.2
   12035.3  589181  57491.8  20307.7
   12040  594535  58260.2  20674.4
   12045  600576  59117.7  21070.1
   12050.1  606670  59997.2  21470.9
   12055.2  610762  60748.8  21723.8
   12060.2  619037  61879.4  22101.7
   12065.3  626227  62710  22468.8
   12070.7  632474  63139.6  22670.9
   12076.1  638314  64041.3  22951.1
   12081.5  644552  65378  23387.4
   12086.9  651898  66624.8  23828.7
   12092.6  658860  67563.5  24265.2
   12098.3  664744  68042.3  24624.7
   12104.1  672686  68833.1  25078.3
   12109.8  679285  69854  25605.9
   12115.9  688191  71301.9  26336.6
   12121.6  695440  72258.8  26883.5
   12127.7  701717  72933.8  27311.4
   12133.8  709432  73965.8  27778.3
   12140.2  717737  75027.8  28203.4
   12146.3  723943  75412.8  28320.5
   12152.8  731603  75866.9  28500.7
   12159.2  738446  76229  28688
   12165.6  744883  77338.1  29196.4
   12172.4  754276  79002.3  29936.8
   12178.9  762791  80456.5  30604.3
   12185.7  771175  82071.8  31291.9
   12192.5  778857  83469  31974.6
   12199.6  785287  84472.3  32535.3
   12206.4  792486  85357.6  33022.1
   12213.5  801190  86311  33588.1
   12220.7  810490  87385.4  34240
   12227.8  817623  88155.8  34764.1
   12235  825873  89218.3  35353.2
   12242.5  832902  90573.7  36063.4
   12250  842662  92419.3  36892.7
   12257.5  850411  94016.8  37565.1
   12265.1  857024  95428.4  38209.6
   12272.6  867060  96764  38874.1
   12280.5  875587  97760.6  39395.7
   12288.4  884158  98813.3  39979.4
   12296.3  891142  99578  40507.1
   12304.2  899780  100633  41148
   12312.1  907386  101736  41799.9
   12320.4  916011  103133  42611.9
   12328.7  924460  104690  43487.9
   12336.6  931372  106094  44310.1
   12345.2  940638  107509  45147.3
   12353.5  949957  109071  45987.6
   12362.2  957596  110583  46849
   12370.5  966094  112101  47691.4
   12379.2  974427  113444  48477
   12387.9  982497  114688  49183.6
   12396.9  991480  116135  49991.3
   12405.6  999692  117475  50756
   12414.7  1.00755e+06  118771  51532.9
   12423.8  1.01443e+06  120075  52354.8
   12432.8  1.0247e+06  121975  53471.8
   12441.9  1.03256e+06  123618  54480.9
   12451.4  1.04002e+06  125140  55496
   12460.5  1.04792e+06  126588  56429.3
   12470  1.05616e+06  128089  57407.6
   12479.5  1.06288e+06  129291  58264
   12489  1.07029e+06  130536  59117.5
   12498.9  1.07714e+06  131742  59931
   12508.4  1.08623e+06  133224  60871.6
   12518.3  1.09497e+06  134799  61889.3
   12528.2  1.10175e+06  136343  62902.1
   12538.1  1.1086e+06  137901  63909
   12548.1  1.11558e+06  139532  64988.9
   12558.4  1.1239e+06  141361  66155.9
   12568.7  1.13289e+06  143206  67397
   12578.7  1.1401e+06  144710  68431.2
   12589.1  1.14577e+06  145969  69407.4
   12599.4  1.15297e+06  147323  70462.7
   12610.2  1.15981e+06  148710  71545.1
   12620.6  1.16724e+06  150280  72690.6
   12631.3  1.17342e+06  151775  73810.2
   12642.1  1.18184e+06  153696  75126.8
   12652.9  1.18909e+06  155463  76399.5
   12663.8  1.1946e+06  156996  77525.3
   12674.6  1.19993e+06  158389  78621.1
   12685.8  1.20495e+06  159724  79686.1
   12696.7  1.21389e+06  161483  80987.1
   12708  1.21988e+06  162896  82147.2
   12719.3  1.22696e+06  164441  83374.4
   12730.6  1.23136e+06  165716  84486.6
   12741.9  1.23686e+06  167203  85737
   12753.6  1.24351e+06  168971  87138.4
   12764.9  1.25031e+06  170762  88555.9
   12776.7  1.25617e+06  172463  89969.4
   12788.4  1.2587e+06  173684  91139
   12800.2  1.26414e+06  175261  92452.8
   12812  1.27099e+06  176962  93879.6
   12824.2  1.27739e+06  178639  95301.4
   12836  1.28106e+06  179920  96504.4
   12848.2  1.28824e+06  181727  98009.4
   12860.5  1.29315e+06  183289  99424.6
   12872.4  1.29553e+06  184483  100602
   12885.1  1.30053e+06  186175  102113

File: as2o3_roomt_scan1.xdi
# XDI/1.0
# Column.1: energy eV
# Column.2: i0
# Column.3: itrans
# Column.4: irefer
# Beamline.name: SSRL 4-1
# Detector.I0: N2 15cm
# Detector.I1: N2 30cm
# Detector.I2: Ar 15cm
# Element.edge: K
# Element.symbol: As
# Mono.d_spacing: 3.13550
# Mono.name: Si(111)
# Mono.notes: unfocused, detuned 40%,counter clockwise at E=12000eV
# Sample.formula: As2O3
# Sample.name: As2O3 arsenious oxide
# Sample.prep: powder, mixed 1:60 with B(OH)3 by wt
# Sample.reference: GaAs powder
# Sample.temperature: room temperature
# Scan.start_time: 1997-01-19 14:12:16
# ///
#    Note: mono d_spacing is nominal!
#     exafs to K15, GaAs in IR
#     320  E XMU XMUR I0
#-------------
#   energy   i0   itrans  irefer
   11650  179062  281173  325987
   11670  178040  280974  327517
   11690  176917  280586  328855
   11710  175015  278964  328694
   11730  174715  279882  331531
   11750  174308  280622  334136
   11770  173368  280415  335699
   11790  172098  279693  336516
   11810  171212  279410  337854
   11830  169899  278125  337682
   11850  168960  275741  334878
   11851.5  167889  273618  332086
   11853  169457  275801  334396
   11854.5  168709  273969  331752
   11856.1  167594  271362  327968
   11857.6  167596  270384  325972
   11859.1  168226  269832  323924
   11860.6  167509  266501  317823
   11862.1  167890  263841  311022
   11863.6  167567  257390  295331
   11865.2  167960  247354  267023
   11866.7  167393  223930  216631
   11868.2  167879  184729  156329
   11869.7  168294  144548  108526
   11871.2  167908  121216  89094.9
   11872.7  167263  126090  94140.9
   11874.2  167382  147281  112717
   11875.8  166906  163168  128925
   11877.3  167107  173314  140853
   11878.8  166608  175383  146185
   11880.3  166590  171610  145179
   11881.8  166363  167580  142985
   11883.3  166587  167970  143780
   11884.8  166934  171371  146620
   11886.4  165962  173480  148497
   11887.9  166466  176854  151543
   11889.4  166536  179885  154092
   11890.9  166634  183452  156951
   11892.4  166471  186207  159259
   11893.9  166748  189124  162221
   11895.5  166283  190121  164014
   11897  165623  189812  164638
   11898.5  166049  190629  165699
   11900  165944  191005  165755
   11902.6  166518  192880  166827
   11905.2  166510  194177  168146
   11908  166698  194939  169210
   11910.8  165792  192759  167294
   11913.6  166308  191017  165296
   11916.6  166188  189137  163551
   11919.6  166581  188572  164364
   11922.7  166152  186656  164001
   11925.9  167263  185941  163841
   11929.2  167541  184854  162879
   11932.5  168167  184777  162138
   11936  169828  186251  162207
   11939.4  170929  187333  162234
   11943  171611  187609  162708
   11946.7  171936  188093  163679
   11950.4  172056  189457  165392
   11954.2  173243  192150  168234
   11958.1  174509  194549  171110
   11962  175792  197015  173532
   11966  176348  198504  174559
   11970.2  177847  201013  177355
   11974.3  179294  203386  181420
   11978.6  180660  205744  184989
   11982.9  183025  209553  188725
   11987.3  183605  211143  189844
   11991.8  184918  213166  190438
   11996.4  186054  214737  190173
   12001  187631  216320  190401
   12005.8  190032  218477  192554
   12010.6  192091  220100  194772
   12015.4  194472  222321  197695
   12020.4  196205  223945  200141
   12025.4  197524  225277  202452
   12030.5  199113  227076  205071
   12035.7  202512  231125  209537
   12040.9  204408  233863  212810
   12046.3  206721  237347  216615
   12051.7  209380  241346  220905
   12057.2  210832  243930  222872
   12062.7  213584  247739  225824
   12068.4  216364  251385  229646
   12074.1  218493  254252  232219
   12079.9  220552  257308  234093
   12085.7  223846  261894  237550
   12091.7  226458  265596  240899
   12097.7  228666  268673  244969
   12103.8  231451  272557  249999
   12110  234259  276649  254952
   12116.2  236446  280066  259624
   12122.6  239990  284859  265694
   12129  242479  288205  270210
   12135.4  245148  291609  273934
   12142  247777  294678  276453
   12148.6  251610  299049  280042
   12155.4  255519  303670  284114
   12162.1  256838  305706  286101
   12169  262168  312929  293367
   12175.9  264359  316731  297713
   12183  266539  320674  301880
   12190  272348  328860  310041
   12197.2  275376  333473  315486
   12204.5  277885  337202  319959
   12211.8  282984  343913  327534
   12219.2  284971  346732  331908
   12226.7  288764  351862  338494
   12234.2  292358  356958  344611
   12241.9  296853  363478  351911
   12249.6  299138  367554  356201
   12257.3  303001  373586  361746
   12265.2  306697  379454  367541
   12273.1  311364  386186  374629
   12281.1  315691  392342  381093
   12289.2  317593  395220  384902
   12297.4  323041  402421  393276
   12305.6  326094  406672  398763
   12314  330149  412397  405673
   12322.4  333044  416900  411534
   12330.8  338324  424714  420712
   12339.4  342828  431782  429303
   12348  346067  437407  436132
   12356.7  350692  444322  444808
   12365.5  354249  450600  451094
   12374.3  358283  456833  458738
   12383.3  363921  464983  467765
   12392.3  365219  467536  471134
   12401.4  369750  474340  478897
   12410.5  373037  479695  485391
   12419.8  380071  490154  497254
   12429.1  384159  496976  505754
   12438.5  389422  505405  516042
   12447.9  391246  509366  522032
   12457.5  396919  518173  532867
   12467.1  401675  525674  542317
   12476.8  405355  531573  550224
   12486.6  409501  538057  558404
   12496.4  415296  546844  568868
   12506.4  420044  554312  578044
   12516.4  421059  557137  582474
   12526.4  427538  567432  594813
   12536.6  431218  574140  603374
   12546.8  435268  581374  612588
   12557.1  441638  591741  625250
   12567.5  444134  596787  632425
   12578  449688  605889  643997
   12588.5  453786  612921  653638
   12599.2  460001  622898  666513
   12609.9  462971  628663  674958
   12620.6  468083  637312  686512
   12631.5  471629  644071  695918
   12642.4  475320  651072  705547
   12653.4  482764  663319  720857
   12664.5  484768  668102  727998
   12675.6  489931  677110  739869
   12686.8  494418  685137  750807
   12698.1  497573  691317  759847
   12709.5  502543  700012  771750
   12715.2  505292  704775  778155