Folder: XASDataLibrary/data/Cd (part 2)

File: CdS_10K_01.xdi
# XDI/1.0
# Column.1: energy eV
# Column.2: i0
# Column.3: itrans
# Column.4: irefer
# Beamline.name: SSRL 4-3
# Detector.I0: Ar 30cm
# Detector.I1: Kr 15cm
# Detector.I2: Kr 15cm
# Element.edge: K
# Element.symbol: Cd
# Mono.d_spacing: 1.92009
# Mono.name: Si(220)
# Mono.notes: unfocused, detuned 20% at E=27800eV
# Sample.formula: CdS
# Sample.name: CdS greenockite
# Sample.prep: powder, mixed with B(OH)3
# Sample.reference: Cd foil
# Sample.temperature: 10K
# Scan.start_time: 1995-06-16 15:35:58
# ///
#    Note: mono d_spacing is nominal!
#     exafs to K17
#     368  E XMU XMUR I0
#-------------
#   energy   i0   itrans  irefer
   26485  48276  113068  614891
   26504.7  48189  112966  615904
   26524.5  48304  113213  619523
   26545.3  48418  113583  623374
   26565.2  48447  113752  625921
   26585.1  48582  114043  629615
   26605  48423  113880  629453
   26625  48522  114051  632322
   26644.9  48429  113840  631893
   26665  48507  113709  631920
   26685  48585  112817  625375
   26687.9  48587  112588  623539
   26689.8  48585  112379  621767
   26692.7  48598  111898  617996
   26694.6  48511  111339  613543
   26697.4  48443  110273  605101
   26700.3  48563  108898  594181
   26702.2  48608  107501  583390
   26705.1  48520  103862  555823
   26708  48602  99382.8  523622
   26709.9  48544  96175.8  501683
   26712.7  48502  90772.8  466440
   26714.7  48496  87585.8  446652
   26717.5  48503  82853.8  418291
   26720.4  48459  79084.8  396504
   26722.3  48389  77624.8  388209
   26725.2  48432  76944.8  384472
   26727.1  48533  77180.8  385864
   26730  48554  77492.8  387775
   26732.9  48513  77685.8  389025
   26734.8  48441  77774.8  389501
   26737.7  48463  78098.8  391539
   26739.6  48419  78242.8  392345
   26742.4  48435  78563.8  394371
   26745.3  48250  78573.8  394610
   26747.2  48364  78898.8  396529
   26750.1  96871  158308  796184
   26752  96739.9  158102  795233
   26754  96923.4  158188  795811
   26755.9  96896.9  157774  793527
   26757.8  97149.1  157603  792764
   26759.7  97217.2  157088  789840
   26761.7  97484.1  156829  788422
   26763.6  97674.8  156518  786604
   26765.5  97944.4  156424  785963
   26768.4  98341.7  156417  785895
   26770.3  98628.9  156633  786987
   26773.2  98907.9  156915  788671
   26775.1  99321.7  157609  792321
   26778  99703.3  158391  796612
   26780.9  100143  159394  802187
   26782.8  100687  160521  808236
   26785.7  101088  161786  815106
   26788.6  101696  163527  824776
   26791.5  102226  165300  834475
   26794.4  102941  167283  845458
   26798.2  103523  169021  855163
   26801.1  104307  170487  863033
   26804  105079  171644  869187
   26807.9  105815  172330  872675
   26810.7  106504  172928  875523
   26814.6  107194  173154  876364
   26818.5  108123  173839  879658
   26822.3  108935  174614  883497
   26825.2  109891  175913  890300
   26829.1  110775  177230  897132
   26832.9  111726  178809  905493
   26836.8  112661  180539  914632
   26841.6  113666  182558  925567
   26845.5  114690  184635  936733
   26849.4  115939  187166  950326
   26854.2  116996  189629  963724
   26858.1  118094  191973  976370
   26862.9  119488  194889  992343
   26866.8  120698  197262  1.00509e+06
   26871.6  121960  199611  1.01782e+06
   26876.5  123069  201459  1.02739e+06
   26881.3  124291  203050  1.03567e+06
   26886.2  125745  204750  1.04444e+06
   26891  126731  205898  1.05016e+06
   26895.9  128182  208186  1.06218e+06
   26900.7  129584  210799  1.07624e+06
   26906.6  130980  213649  1.09166e+06
   26911.4  132365  216149  1.10505e+06
   26916.3  133809  218532  1.11767e+06
   26922.1  135243  220854  1.12995e+06
   26928  136601  223403  1.14376e+06
   26932.8  138258  226793  1.16204e+06
   26938.7  139778  230366  1.1816e+06
   26944.5  141145  233764  1.20015e+06
   26950.3  142949  237545  1.22086e+06
   26956.2  144440  240422  1.23631e+06
   26962  146283  243230  1.25137e+06
   26967.9  147966  245378  1.26258e+06
   26973.8  149566  247435  1.27323e+06
   26980.6  151067  249855  1.28611e+06
   26986.5  152839  253212  1.30423e+06
   26992.3  154440  256544  1.32222e+06
   26999.2  156205  260287  1.3428e+06
   27006  157887  263846  1.36226e+06
   27011.9  159782  267458  1.38181e+06
   27018.7  161573  270541  1.39855e+06
   27025.6  163485  273456  1.41426e+06
   27032.5  165118  276199  1.42893e+06
   27039.3  167031  280322  1.45158e+06
   27046.2  168848  285059  1.47784e+06
   27053.1  170798  289715  1.50379e+06
   27059.9  172700  293373  1.52373e+06
   27067.8  174725  296377  1.54006e+06
   27074.7  176503  298969  1.55389e+06
   27081.6  178487  302091  1.57079e+06
   27089.4  180167  305185  1.58761e+06
   27097.3  181990  308787  1.60746e+06
   27104.2  183715  312279  1.62661e+06
   27112.1  185908  316902  1.65235e+06
   27120  187840  321523  1.67808e+06
   27127.9  189712  325682  1.70132e+06
   27135.8  191483  328985  1.7194e+06
   27143.7  193546  332547  1.73899e+06
   27151.6  195407  336019  1.75804e+06
   27159.5  197456  340042  1.78024e+06
   27167.5  199364  344023  1.80253e+06
   27176.4  201328  348609  1.8283e+06
   27184.3  202870  352366  1.84923e+06
   27193.2  204746  356127  1.87043e+06
   27201.2  206779  359788  1.89062e+06
   27210.1  208485  362821  1.9076e+06
   27219.1  210216  365776  1.92389e+06
   27227  212469  369990  1.94768e+06
   27236  214246  374182  1.9715e+06
   27244.9  216008  378487  1.99592e+06
   27253.9  218210  383468  2.02423e+06
   27262.9  219940  387414  2.04666e+06
   27272.9  221707  391440  2.0696e+06
   27281.8  223364  395180  2.09078e+06
   27290.8  225201  398705  2.11074e+06
   27299.8  227176  402078  2.13014e+06
   27309.8  229028  405899  2.15188e+06
   27318.9  230904  410384  2.17768e+06
   27328.9  232516  414659  2.2025e+06
   27338.9  234291  418740  2.22614e+06
   27347.9  236221  422768  2.24916e+06
   27358  237950  426319  2.27001e+06
   27368  239795  430112  2.29198e+06
   27378.1  240836  432698  2.30695e+06
   27388.1  242333  436122  2.32717e+06
   27398.2  244115  440652  2.35369e+06
   27408.3  245703  445156  2.38019e+06
   27419.4  247017  448703  2.40148e+06
   27429.5  248578  452254  2.42237e+06
   27439.6  250092  455714  2.44281e+06
   27450.7  251706  459355  2.46464e+06
   27460.8  253180  462559  2.48389e+06
   27472  254298  465402  2.50109e+06
   27482.1  256186  469680  2.52667e+06
   27493.2  257641  473692  2.55127e+06
   27504.4  259041  477707  2.57544e+06
   27515.6  260196  480855  2.5948e+06
   27526.8  261433  483978  2.61403e+06
   27538  262709  487096  2.63328e+06
   27549.2  263802  489900  2.65087e+06
   27560.4  265143  493512  2.67327e+06
   27571.6  266241  496867  2.69416e+06
   27582.8  267005  499658  2.71194e+06
   27595.1  268195  503146  2.73398e+06
   27606.3  269077  505909  2.75178e+06
   27618.6  270170  508962  2.77164e+06
   27629.9  271186  511714  2.78952e+06
   27642.2  271796  513799  2.80364e+06
   27653.5  273262  517515  2.82735e+06
   27665.8  274255  520834  2.84906e+06
   27678.1  275088  523657  2.86787e+06
   27690.5  276268  527107  2.89032e+06
   27702.8  276997  529815  2.90865e+06
   27715.2  277790  532629  2.92748e+06
   27727.6  278573  535192  2.94508e+06
   27739.9  279366  537682  2.96232e+06
   27752.3  279890  539696  2.97671e+06
   27764.8  280706  542496  2.99588e+06
   27778.2  280795  544449  3.0106e+06
   27790.6  280108  544288  3.01281e+06
   27803.1  281196  547700  3.0358e+06
   27816.6  280318  547174  3.03598e+06
   27829.1  282350  552211  3.06876e+06
   27836.3  283423  554879  3.08625e+06

File: CdS_10K_02.xdi
# XDI/1.0
# Column.1: energy eV
# Column.2: i0
# Column.3: itrans
# Column.4: irefer
# Beamline.name: SSRL 4-3
# Detector.I0: Ar 30cm
# Detector.I1: Kr 15cm
# Detector.I2: Kr 15cm
# Element.edge: K
# Element.symbol: Cd
# Mono.d_spacing: 1.92009
# Mono.name: Si(220)
# Mono.notes: unfocused, detuned 20% at E=27800eV
# Sample.formula: CdS
# Sample.name: CdS greenockite
# Sample.prep: powder, mixed with B(OH)3
# Sample.reference: Cd foil
# Sample.temperature: 10K
# Scan.start_time: 1995-06-16 15:35:58
# ///
#    Note: mono d_spacing is nominal!
#     exafs to K17
#     368  E XMU XMUR I0
#-------------
#   energy   i0   itrans  irefer
   26485  48194  110575  626815
   26504.7  48105  110429  627779
   26524.5  48198  110717  631174
   26545.3  48213  110864  633662
   26565.2  48186  110974  635398
   26585.1  48248  111152  638163
   26605  48122  111040  638351
   26625  48053  110911  638934
   26644.9  48044  110892  639595
   26665  48055  110664  638762
   26685  47932  109402  629715
   26687.9  48001  109301  628748
   26689.8  48101  109287  628381
   26692.7  48104  108806  624543
   26694.6  48025  108263  620282
   26697.4  47970  107242  612166
   26700.3  47797  105407  597859
   26702.2  47881  104172  587958
   26705.1  47930  100835  562505
   26708  47907  96236.8  529118
   26709.9  47905  93182.8  507823
   26712.7  47934  87884.8  472602
   26714.7  47861  84626.8  451802
   26717.5  47816  79834.8  422240
   26720.4  47850  76151.8  400284
   26722.3  47898  74842.8  392610
   26725.2  47644  73717.8  386169
   26727.1  47793  74021.8  387937
   26730  47784  74288.8  389599
   26732.9  47853  74635.8  391765
   26734.8  47803  74727.8  392431
   26737.7  47819  75042.8  394415
   26739.6  47815  75236.8  395637
   26742.4  47756  75446.8  396966
   26745.3  47687  75621.8  398163
   26747.2  47648  75728.8  398834
   26750.1  95453  151979  800964
   26752  95503.9  152035  801514
   26754  95582.4  151935  801138
   26755.9  95490.9  151439  798307
   26757.8  95691.1  151220  797139
   26759.7  95756.2  150714  794198
   26761.7  95972.1  150378  792284
   26763.6  96156.8  150053  790419
   26765.5  96601.4  150180  791180
   26768.4  96811.7  149926  789678
   26770.3  97112.9  150173  790983
   26773.2  97159.9  150136  790740
   26775.1  97832.7  151154  796571
   26778  98310.3  152060  801805
   26780.9  98480.7  152673  805294
   26782.8  99011  153749  811305
   26785.7  99632  155291  820190
   26788.6  100189  156934  829599
   26791.5  100779  158738  839941
   26794.4  101373  160500  850062
   26798.2  101949  162170  859674
   26801.1  102673  163455  867075
   26804  103387  164516  872721
   26807.9  104255  165346  877318
   26810.7  104980  165949  880434
   26814.6  105604  166073  880804
   26818.5  106540  166756  884282
   26822.3  107330  167455  888044
   26825.2  108345  168815  895550
   26829.1  109231  170106  902604
   26832.9  110189  171669  911251
   26836.8  111008  173173  919664
   26841.6  112102  175281  931533
   26845.5  113090  177277  942565
   26849.4  114160  179461  954977
   26854.2  115222  181853  968541
   26858.1  116345  184185  981616
   26862.9  117448  186614  995388
   26866.8  118631  188853  1.00811e+06
   26871.6  119907  191126  1.0209e+06
   26876.5  121207  193151  1.0322e+06
   26881.3  122494  194781  1.04105e+06
   26886.2  123758  196151  1.04838e+06
   26891  125184  197919  1.0581e+06
   26895.9  126266  199625  1.0673e+06
   26900.7  127776  202341  1.08265e+06
   26906.6  129175  205102  1.09827e+06
   26911.4  130596  207565  1.11208e+06
   26916.3  131733  209429  1.12226e+06
   26922.1  133309  211894  1.13599e+06
   26928  134602  214329  1.14965e+06
   26932.8  136139  217431  1.16716e+06
   26938.7  137751  221058  1.18793e+06
   26944.5  139127  224340  1.20671e+06
   26950.3  140844  227874  1.22687e+06
   26956.2  142562  230979  1.24444e+06
   26962  143931  233016  1.25558e+06
   26967.9  145640  235110  1.26724e+06
   26973.8  147147  236980  1.27727e+06
   26980.6  148674  239356  1.29077e+06
   26986.5  150511  242761  1.30994e+06
   26992.3  152375  246369  1.33047e+06
   26999.2  154055  249862  1.35046e+06
   27006  155830  253442  1.37105e+06
   27011.9  157513  256613  1.38894e+06
   27018.7  159557  259951  1.40799e+06
   27025.6  161239  262431  1.42185e+06
   27032.5  162917  265214  1.43757e+06
   27039.3  164611  268882  1.45882e+06
   27046.2  166648  273846  1.48745e+06
   27053.1  168452  278124  1.51223e+06
   27059.9  170267  281479  1.53136e+06
   27067.8  172267  284361  1.54779e+06
   27074.7  174134  286965  1.56253e+06
   27081.6  175987  289809  1.57851e+06
   27089.4  177602  292706  1.59504e+06
   27097.3  179750  296698  1.61813e+06
   27104.2  181544  300221  1.63843e+06
   27112.1  183394  304171  1.66144e+06
   27120  185400  308776  1.68811e+06
   27127.9  187101  312527  1.70992e+06
   27135.8  189121  316030  1.73015e+06
   27143.7  191325  319646  1.75099e+06
   27151.6  193145  322990  1.77029e+06
   27159.5  195244  326918  1.79309e+06
   27167.5  197203  330838  1.81601e+06
   27176.4  199037  335140  1.84114e+06
   27184.3  200868  339219  1.86495e+06
   27193.2  202728  342807  1.88597e+06
   27201.2  204862  346449  1.90733e+06
   27210.1  206390  349141  1.92295e+06
   27219.1  208428  352482  1.94249e+06
   27227  210448  356233  1.9645e+06
   27236  212234  360359  1.98871e+06
   27244.9  214180  364750  2.01503e+06
   27253.9  216128  369187  2.04128e+06
   27262.9  217905  373093  2.06439e+06
   27272.9  219892  377272  2.08944e+06
   27281.8  221799  381261  2.1131e+06
   27290.8  223720  384762  2.13387e+06
   27299.8  225747  388162  2.15412e+06
   27309.8  227173  391238  2.17247e+06
   27318.9  228939  395401  2.19745e+06
   27328.9  230549  399536  2.22255e+06
   27338.9  232406  403634  2.24727e+06
   27347.9  234271  407446  2.27004e+06
   27358  236020  410886  2.29104e+06
   27368  237865  414595  2.31349e+06
   27378.1  239418  417877  2.33371e+06
   27388.1  241061  421418  2.35539e+06
   27398.2  242737  425669  2.38117e+06
   27408.3  244740  430657  2.41169e+06
   27419.4  246302  434494  2.43548e+06
   27429.5  247915  438014  2.45716e+06
   27439.6  249301  441087  2.4764e+06
   27450.7  250683  444272  2.49624e+06
   27460.8  252690  448222  2.52083e+06
   27472  254062  451373  2.54063e+06
   27482.1  255340  454529  2.56061e+06
   27493.2  256806  458416  2.58521e+06
   27504.4  258375  462573  2.61117e+06
   27515.6  259648  465913  2.63231e+06
   27526.8  260788  468784  2.65088e+06
   27538  262082  471816  2.67036e+06
   27549.2  263573  475243  2.69233e+06
   27560.4  265028  478844  2.71575e+06
   27571.6  266714  483093  2.74304e+06
   27582.8  267872  486458  2.76468e+06
   27595.1  268998  489780  2.78645e+06
   27606.3  270189  492939  2.80732e+06
   27618.6  271336  495987  2.82772e+06
   27629.9  272542  498913  2.84716e+06
   27642.2  273454  501342  2.86402e+06
   27653.5  274638  504595  2.88558e+06
   27665.8  275559  507659  2.90651e+06
   27678.1  276539  510720  2.92728e+06
   27690.5  277676  514051  2.94974e+06
   27702.8  278760  517276  2.97181e+06
   27715.2  279606  520077  2.99111e+06
   27727.6  280417  522657  3.00939e+06
   27739.9  281100  524978  3.02593e+06
   27752.3  282090  527695  3.0452e+06
   27764.8  283023  530737  3.06649e+06
   27778.2  282846  532172  3.07822e+06
   27790.6  282178  532044  3.08043e+06
   27803.1  283832  536345  3.10965e+06
   27816.6  282574  535218  3.10603e+06
   27829.1  285355  541369  3.14675e+06
   27836.3  286907  544758  3.16939e+06

File: CdS_10K_03.xdi
# XDI/1.0
# Column.1: energy eV
# Column.2: i0
# Column.3: itrans
# Column.4: irefer
# Beamline.name: SSRL 4-3
# Detector.I0: Ar 30cm
# Detector.I1: Kr 15cm
# Detector.I2: Kr 15cm
# Element.edge: K
# Element.symbol: Cd
# Mono.d_spacing: 1.92009
# Mono.name: Si(220)
# Mono.notes: unfocused, detuned 20% at E=27800eV
# Sample.formula: CdS
# Sample.name: CdS greenockite
# Sample.prep: powder, mixed with B(OH)3
# Sample.reference: Cd foil
# Sample.temperature: 10K
# Scan.start_time: 1995-06-16 15:35:58
# ///
#    Note: mono d_spacing is nominal!
#     exafs to K17
#     368  E XMU XMUR I0
#-------------
#   energy   i0   itrans  irefer
   26485  46660  106214  618957
   26504.7  46635  106146  620481
   26524.5  46701  106394  623629
   26545.3  46916  106912  628617
   26565.2  46538  106412  625603
   26585.1  46995  107248  633634
   26605  46869  107126  633789
   26625  46868  107128  635160
   26644.9  46885  107073  636010
   26665  46861  106741  634600
   26685  46774  105592  625900
   26687.9  46838  105470  624901
   26689.8  46917  105393  624099
   26692.7  46848  104773  619240
   26694.6  46851  104338  615880
   26697.4  46892  103414  608663
   26700.3  46898  101803  596123
   26702.2  46970  100443  585646
   26705.1  46953  96892.8  558792
   26708  46901  92181.8  524790
   26709.9  46839  89006.8  502647
   26712.7  46839  83735.8  467562
   26714.7  46740  80480.8  446695
   26717.5  46783  76037.8  418885
   26720.4  46792  72549.8  397632
   26722.3  46708  71148.8  389230
   26725.2  46692  70474.8  385280
   26727.1  46735  70633.8  386302
   26730  46740  70908.8  388070
   26732.9  46662  71031.8  389018
   26734.8  46707  71272.8  390472
   26737.7  46658  71489.8  391888
   26739.6  46629  71640.8  392891
   26742.4  46587  71868.8  394365
   26745.3  46615  72173.8  396394
   26747.2  46683  72413.8  397882
   26750.1  93255  144943  796603
   26752  93331.9  145014  797261
   26754  93368.4  144863  796503
   26755.9  93427.9  144567  794857
   26757.8  93542.1  144215  792847
   26759.7  93805.2  143951  791457
   26761.7  93945.1  143535  788940
   26763.6  94110.8  143220  787062
   26765.5  94429.4  143184  786885
   26768.4  94665.7  142972  785683
   26770.3  95000.9  143257  787269
   26773.2  95136.9  143353  787948
   26775.1  95619.7  144137  792401
   26778  96240.3  145207  798899
   26780.9  96435.7  145815  802576
   26782.8  97013  146954  809145
   26785.7  97491  148280  816981
   26788.6  97922.9  149722  825466
   26791.5  98521.6  151516  836037
   26794.4  99319.1  153476  847810
   26798.2  99848.5  154990  856912
   26801.1  100600  156307  864458
   26804  101191  157103  869075
   26807.9  101979  157786  872998
   26810.7  102467  158060  874234
   26814.6  103147  158249  875223
   26818.5  104132  158990  879390
   26822.3  105000  159796  884000
   26825.2  105904  160983  890760
   26829.1  106714  162158  897372
   26832.9  107632  163611  905801
   26836.8  108564  165228  915266
   26841.6  109405  166926  925184
   26845.5  110439  168929  936804
   26849.4  111529  171112  949524
   26854.2  112642  173503  963638
   26858.1  113723  175695  976475
   26862.9  114938  178204  991235
   26866.8  116080  180331  1.00366e+06
   26871.6  117282  182422  1.01591e+06
   26876.5  118514  184302  1.02677e+06
   26881.3  119841  185932  1.03602e+06
   26886.2  121207  187392  1.04443e+06
   26891  122555  189021  1.0538e+06
   26895.9  123689  190767  1.06375e+06
   26900.7  125068  193229  1.07815e+06
   26906.6  126421  195842  1.09352e+06
   26911.4  127779  198164  1.1069e+06
   26916.3  128978  200028  1.11772e+06
   26922.1  130580  202477  1.13197e+06
   26928  131882  204875  1.14598e+06
   26932.8  133307  207753  1.16282e+06
   26938.7  134914  211271  1.18382e+06
   26944.5  136133  214199  1.20122e+06
   26950.3  138087  217977  1.22364e+06
   26956.2  139699  220806  1.24028e+06
   26962  141327  223122  1.25367e+06
   26967.9  143075  225207  1.26579e+06
   26973.8  144681  227179  1.27711e+06
   26980.6  146166  229449  1.29047e+06
   26986.5  148075  232862  1.3105e+06
   26992.3  149904  236333  1.33109e+06
   26999.2  151564  239704  1.35118e+06
   27006  153348  243185  1.37197e+06
   27011.9  155060  246291  1.39025e+06
   27018.7  156708  248971  1.40603e+06
   27025.6  158591  251675  1.42193e+06
   27032.5  160384  254554  1.43897e+06
   27039.3  162108  258218  1.46089e+06
   27046.2  163947  262738  1.48806e+06
   27053.1  166009  267282  1.51538e+06
   27059.9  167948  270697  1.53572e+06
   27067.8  169545  272865  1.54855e+06
   27074.7  171763  275930  1.5667e+06
   27081.6  173495  278503  1.58182e+06
   27089.4  175273  281574  1.60018e+06
   27097.3  177406  285426  1.62344e+06
   27104.2  179057  288620  1.64261e+06
   27112.1  181142  292877  1.66819e+06
   27120  182686  296693  1.69116e+06
   27127.9  183295  298795  1.70356e+06
   27135.8  185218  302054  1.72327e+06
   27143.7  187314  305421  1.74356e+06
   27151.6  189388  309020  1.76531e+06
   27159.5  191314  312577  1.78678e+06
   27167.5  193356  316530  1.81081e+06
   27176.4  195132  320593  1.83551e+06
   27184.3  197334  325062  1.8629e+06
   27193.2  199263  328692  1.88489e+06
   27201.2  201145  331824  1.90392e+06
   27210.1  202902  334783  1.92188e+06
   27219.1  204680  337601  1.93909e+06
   27227  206872  341535  1.96309e+06
   27236  208734  345634  1.98829e+06
   27244.9  211195  350730  2.01977e+06
   27253.9  213028  354865  2.04524e+06
   27262.9  215170  359175  2.07187e+06
   27272.9  216760  362632  2.09335e+06
   27281.8  218956  366929  2.11999e+06
   27290.8  220897  370425  2.14166e+06
   27299.8  222774  373458  2.16047e+06
   27309.8  224732  377184  2.18368e+06
   27318.9  227049  382116  2.21432e+06
   27328.9  228832  386406  2.24129e+06
   27338.9  230747  390468  2.26684e+06
   27347.9  232655  394148  2.28995e+06
   27358  234486  397680  2.31215e+06
   27368  236245  401048  2.33357e+06
   27378.1  238374  405087  2.35911e+06
   27388.1  239982  408524  2.38085e+06
   27398.2  241701  412689  2.40735e+06
   27408.3  243353  417069  2.43512e+06
   27419.4  245006  420877  2.45972e+06
   27429.5  246505  424093  2.48026e+06
   27439.6  248247  427670  2.5032e+06
   27450.7  249479  430568  2.52199e+06
   27460.8  251593  434551  2.54781e+06
   27472  253423  438265  2.57196e+06
   27482.1  255068  441985  2.59614e+06
   27493.2  256245  445341  2.61816e+06
   27504.4  257884  449427  2.64485e+06
   27515.6  259413  453054  2.66877e+06
   27526.8  260938  456447  2.69113e+06
   27538  262607  459991  2.71461e+06
   27549.2  264072  463287  2.73645e+06
   27560.4  265155  466246  2.75642e+06
   27571.6  266646  470077  2.78195e+06
   27582.8  267704  473193  2.8028e+06
   27595.1  269177  476935  2.82815e+06
   27606.3  270494  480246  2.85063e+06
   27618.6  271652  483279  2.87139e+06
   27629.9  273151  486616  2.89412e+06
   27642.2  273749  488518  2.9082e+06
   27653.5  274830  491533  2.92878e+06
   27665.8  275995  494915  2.95227e+06
   27678.1  277142  498124  2.97482e+06
   27690.5  278070  501068  2.99558e+06
   27702.8  278825  503689  3.01448e+06
   27715.2  279962  506893  3.03703e+06
   27727.6  280919  509692  3.05721e+06
   27739.9  282028  512569  3.07795e+06
   27752.3  283430  515996  3.10218e+06
   27764.8  284073  518356  3.11964e+06
   27778.2  284160  520215  3.13441e+06
   27790.6  283250  519749  3.13399e+06
   27803.1  285280  524565  3.16758e+06
   27816.6  284128  523613  3.16481e+06
   27829.1  286196  528407  3.1981e+06
   27836.3  287849  531901  3.22194e+06