Folder: XASDataLibrary/data/Cd

Note: README
The XAS Data Library is designed to hold X-ray Absorption Spectra (EXAFS
and XANES) using an SQLite database, with array data encoded using JSON.
The principle goal for the library is as a proposed standard for storing
and exchanging XAS data. The implementation here is intended for initial
reference and comments. 

The idea is provide a format and set of tools for managing Libraries of
XAFS Data, and to be able to share these libraries between different
researchers and different analysis programs.  As the the base format of the
library will be created with SQLite, the SQL syntax and any third party
software that can use SQL and SQLite will be able to explore the data in
the format.  In addition, reference implementations of programmatically
interecting with the library will be provided.  

Ideally, a stand-alone GUI Data Browser and an on-line Library will be
built upon such a format.

See http://xafs.org/XasDataLibrary for additional information.


--Matt Newville  18-Feb-2011

File: CdO_10K_01.xdi
# XDI/1.0
# Column.1: energy eV
# Column.2: i0
# Column.3: itrans
# Column.4: irefer
# Beamline.name: SSRL 4-3
# Detector.I0: Ar 30cm
# Detector.I1: Kr 15cm
# Detector.I2: Kr 15cm
# Element.edge: K
# Element.symbol: Cd
# Mono.d_spacing: 1.92009
# Mono.name: Si(220)
# Mono.notes: unfocused, detuned 20% at E=27800eV
# Sample.formula: CdO
# Sample.name: CdO monteponite
# Sample.prep: powder, mixed with B(OH)3
# Sample.reference: Cd foil
# Sample.temperature: 10K
# Scan.start_time: 1995-06-16 12:34:45
# ///
#    Note: mono d_spacing is nominal!
#     exafs to K17
#     368  E XMU XMUR I0
#-------------
#   energy   i0   itrans  irefer
   26485  60544  176444  537720
   26504.7  60496  176419  539988
   26524.5  60557  176769  543152
   26545.3  60625  177193  546533
   26565.2  60697  177605  549714
   26585.1  60756  177916  552601
   26605  60747  178134  554916
   26625  60824  178421  557736
   26644.9  60763  178264  558459
   26665  60748  177894  557901
   26685  60793  176119  550305
   26687.9  60753  175447  547663
   26689.8  60879  175309  546816
   26692.7  60838  174103  541483
   26694.6  60799  173033  536658
   26697.4  60828  170646  525934
   26700.3  60699  166257  506627
   26702.2  60782  162879  492147
   26705.1  60785  154839  459705
   26708  60720  144472  421656
   26709.9  60800  138153  399865
   26712.7  60668  127833  366801
   26714.7  60825  123924  354742
   26717.5  60840  120166  343636
   26720.4  60720  120096  343802
   26722.3  60808  121706  348850
   26725.2  60631  124580  357951
   26727.1  60639  126307  363493
   26730  60676  127957  368925
   26732.9  60684  128629  371443
   26734.8  60736  129062  372971
   26737.7  60795  129634  375028
   26739.6  60675  129443  374562
   26742.4  60662  128772  372542
   26745.3  60559  126941  366908
   26747.2  60711  125886  363620
   26750.1  121264  246277  710197
   26752  121425  243435  701685
   26754  121485  240934  694369
   26755.9  121497  239362  689875
   26757.8  121772  239498  690785
   26759.7  122010  240889  695564
   26761.7  122345  243656  704724
   26763.6  122555  246976  715479
   26765.5  122852  250773  727706
   26768.4  123210  255703  743635
   26770.3  123855  258569  752940
   26773.2  124065  259570  756313
   26775.1  124704  260345  758900
   26778  125027  259399  755763
   26780.9  125577  258858  754355
   26782.8  126493  259973  757969
   26785.7  127295  261184  762089
   26788.6  127864  262620  766804
   26791.5  128615  264549  773111
   26794.4  129464  266553  779572
   26798.2  130184  268496  785834
   26801.1  131054  270809  793474
   26804  132111  273413  801963
   26807.9  132832  274664  805988
   26810.7  134155  276188  810786
   26814.6  135057  275539  808806
   26818.5  136194  275597  808924
   26822.3  137259  276982  813457
   26825.2  138462  279921  822857
   26829.1  139665  283811  835337
   26832.9  140956  287774  848016
   26836.8  142184  291309  859570
   26841.6  143185  294499  869829
   26845.5  145107  299420  885859
   26849.4  146333  303020  897336
   26854.2  147743  306734  909473
   26858.1  149122  309392  917797
   26862.9  150855  311830  925545
   26866.8  152328  313812  931662
   26871.6  153884  316158  939235
   26876.5  155618  319678  950692
   26881.3  157118  323821  964100
   26886.2  158710  328551  979561
   26891  160678  333485  995593
   26895.9  162449  336965  1.00666e+06
   26900.7  163903  339066  1.01325e+06
   26906.6  165876  342113  1.0231e+06
   26911.4  167597  345581  1.03427e+06
   26916.3  169444  349601  1.04736e+06
   26922.1  171388  354133  1.06192e+06
   26928  173381  359111  1.07835e+06
   26932.8  175280  364205  1.09467e+06
   26938.7  177224  370042  1.11424e+06
   26944.5  179358  376274  1.13489e+06
   26950.3  181341  382021  1.15378e+06
   26956.2  183736  387399  1.17158e+06
   26962  185759  390595  1.18175e+06
   26967.9  187987  393628  1.1916e+06
   26973.8  190278  397266  1.20339e+06
   26980.6  192211  400563  1.21431e+06
   26986.5  194401  404718  1.22787e+06
   26992.3  196918  410313  1.24643e+06
   26999.2  199271  417148  1.26927e+06
   27006  201494  424746  1.29491e+06
   27011.9  203875  432706  1.32178e+06
   27018.7  206117  440056  1.34643e+06
   27025.6  208534  444193  1.36006e+06
   27032.5  210630  444998  1.36261e+06
   27039.3  213159  448361  1.37341e+06
   27046.2  215406  454564  1.39453e+06
   27053.1  218316  462468  1.42125e+06
   27059.9  220443  467910  1.43978e+06
   27067.8  222917  473718  1.45953e+06
   27074.7  225653  480012  1.48089e+06
   27081.6  227428  485337  1.49901e+06
   27089.4  230260  493764  1.52814e+06
   27097.3  232881  501132  1.55334e+06
   27104.2  235598  507425  1.57502e+06
   27112.1  237938  511381  1.58855e+06
   27120  240639  515467  1.60262e+06
   27127.9  243059  519428  1.61614e+06
   27135.8  245711  524383  1.63327e+06
   27143.7  248009  530067  1.65314e+06
   27151.6  250538  538239  1.68167e+06
   27159.5  253076  548016  1.71597e+06
   27167.5  256065  558058  1.75121e+06
   27176.4  258420  563839  1.7714e+06
   27184.3  260459  567028  1.78306e+06
   27193.2  263350  572825  1.80338e+06
   27201.2  265815  578219  1.82227e+06
   27210.1  267819  580895  1.83204e+06
   27219.1  270146  585478  1.8487e+06
   27227  273330  593724  1.8779e+06
   27236  275483  600497  1.90249e+06
   27244.9  277988  608823  1.93226e+06
   27253.9  279938  616330  1.96024e+06
   27262.9  282830  623484  1.98548e+06
   27272.9  284850  626865  1.99839e+06
   27281.8  287143  632688  2.01959e+06
   27290.8  289513  639913  2.04639e+06
   27299.8  292013  646958  2.07204e+06
   27309.8  294036  650615  2.0862e+06
   27318.9  296478  654549  2.10115e+06
   27328.9  298178  658673  2.11762e+06
   27338.9  300471  665674  2.1436e+06
   27347.9  302659  674139  2.17545e+06
   27358  304868  684151  2.21232e+06
   27368  306716  689587  2.2338e+06
   27378.1  308877  693115  2.24763e+06
   27388.1  310508  696676  2.26237e+06
   27398.2  312562  701849  2.28253e+06
   27408.3  314398  706235  2.30012e+06
   27419.4  316177  710438  2.31766e+06
   27429.5  318247  716386  2.34125e+06
   27439.6  320155  723677  2.37001e+06
   27450.7  321887  730861  2.39796e+06
   27460.8  324000  736446  2.42075e+06
   27472  325531  741431  2.44193e+06
   27482.1  327076  747212  2.46499e+06
   27493.2  328602  751441  2.48369e+06
   27504.4  330086  754859  2.49965e+06
   27515.6  331642  758822  2.51695e+06
   27526.8  332907  763266  2.53663e+06
   27538  334106  767001  2.5537e+06
   27549.2  334792  770221  2.56892e+06
   27560.4  336590  777240  2.59802e+06
   27571.6  338196  781533  2.61748e+06
   27582.8  338862  784602  2.63301e+06
   27595.1  340257  792361  2.66515e+06
   27606.3  341435  796570  2.6848e+06
   27618.6  342235  799037  2.69921e+06
   27629.9  343474  802232  2.71511e+06
   27642.2  344595  802875  2.72281e+06
   27653.5  345346  806033  2.73939e+06
   27665.8  346339  813106  2.77053e+06
   27678.1  346995  816686  2.78869e+06
   27690.5  347944  820778  2.80948e+06
   27702.8  348546  823878  2.82642e+06
   27715.2  349320  826363  2.84145e+06
   27727.6  350159  830385  2.86182e+06
   27739.9  350211  831742  2.8733e+06
   27752.3  351070  835400  2.89316e+06
   27764.8  351483  836980  2.90502e+06
   27778.2  350640  835761  2.90764e+06
   27790.6  350257  837248  2.91978e+06
   27803.1  351526  842457  2.94563e+06
   27816.6  349540  839361  2.94162e+06
   27829.1  353032  849546  2.98567e+06
   27836.3  354065  853140  3.00297e+06

File: CdO_10K_02.xdi
# XDI/1.0
# Column.1: energy eV
# Column.2: i0
# Column.3: itrans
# Column.4: irefer
# Beamline.name: SSRL 4-3
# Detector.I0: Ar 30cm
# Detector.I1: Kr 15cm
# Detector.I2: Kr 15cm
# Element.edge: K
# Element.symbol: Cd
# Mono.d_spacing: 1.92009
# Mono.name: Si(220)
# Mono.notes: unfocused, detuned 20% at E=27800eV
# Sample.formula: CdO
# Sample.name: CdO monteponite
# Sample.prep: powder, mixed with B(OH)3
# Sample.reference: Cd foil
# Sample.temperature: 10K
# Scan.start_time: 1995-06-16 13:03:55
# ///
#    Note: mono d_spacing is nominal!
#     exafs to K17
#     368  E XMU XMUR I0
#-------------
#   energy   i0   itrans  irefer
   26485  60178  156774  573789
   26504.7  60112  156800  575777
   26524.5  59948  156562  576945
   26545.3  60179  157316  581876
   26565.2  60135  157467  584103
   26585.1  60166  157590  586874
   26605  60112  157731  588709
   26625  60120  157694  590984
   26644.9  60093  157696  592070
   26665  60158  157597  592254
   26685  59949  155890  582751
   26687.9  60050  155762  581709
   26689.8  60127  155664  580638
   26692.7  60009  154747  575140
   26694.6  59964  154047  570906
   26697.4  59892  152406  560982
   26700.3  59992  149898  546313
   26702.2  60054  147719  533290
   26705.1  60093  142189  502602
   26708  59936  134283  462655
   26709.9  59938  129128  438540
   26712.7  59901  120049  399936
   26714.7  60088  115896  383477
   26717.5  60138  111283  366155
   26720.4  59992  109856  361345
   26722.3  59878  110454  363639
   26725.2  59830  112877  373241
   26727.1  59934  114745  380598
   26730  59926  116556  387879
   26732.9  59723  116985  389936
   26734.8  59819  117471  391910
   26737.7  59945  118113  394784
   26739.6  59961  118317  395774
   26742.4  59899  117974  394590
   26745.3  59741  116579  389234
   26747.2  59774  115650  385460
   26750.1  119596  227099  754642
   26752  119740  224443  744692
   26754  119907  222146  736174
   26755.9  119872  220228  729193
   26757.8  119999  219526  726861
   26759.7  120184  220137  729551
   26761.7  120438  221978  736894
   26763.6  120642  224599  747145
   26765.5  121057  228083  760894
   26768.4  121258  232443  778109
   26770.3  121721  235066  788538
   26773.2  122229  237091  796425
   26775.1  122668  237717  798842
   26778  123184  237485  797535
   26780.9  123468  236609  793957
   26782.8  124543  237809  798443
   26785.7  125279  238629  801437
   26788.6  125801  239776  805710
   26791.5  126596  241605  812574
   26794.4  127394  243386  819242
   26798.2  128166  245207  826250
   26801.1  129137  247497  834891
   26804  129849  249320  841582
   26807.9  130914  251325  849030
   26810.7  131889  252402  852597
   26814.6  132776  252062  850687
   26818.5  133844  251991  849756
   26822.3  134951  253190  853858
   26825.2  135846  255208  861227
   26829.1  137202  258909  875196
   26832.9  138397  262381  888303
   26836.8  139625  265674  900432
   26841.6  140690  268734  912055
   26845.5  142194  272445  926088
   26849.4  143553  276008  939488
   26854.2  145052  279675  953192
   26858.1  146292  282019  961546
   26862.9  147999  284392  970049
   26866.8  149577  286509  977444
   26871.6  151016  288424  983994
   26876.5  152490  291232  994053
   26881.3  154008  294907  1.00781e+06
   26886.2  155968  299832  1.02659e+06
   26891  157826  304251  1.04339e+06
   26895.9  159443  307393  1.05472e+06
   26900.7  160876  309427  1.0616e+06
   26906.6  162992  312538  1.07284e+06
   26911.4  164782  315849  1.08504e+06
   26916.3  166920  320065  1.10041e+06
   26922.1  168571  323738  1.11402e+06
   26928  170352  327940  1.12974e+06
   26932.8  172173  332419  1.1466e+06
   26938.7  174431  338265  1.16912e+06
   26944.5  176142  343283  1.18797e+06
   26950.3  178146  348584  1.2086e+06
   26956.2  180442  353501  1.22726e+06
   26962  180851  354078  1.22754e+06
   26967.9  183540  357852  1.2413e+06
   26973.8  185509  360769  1.25182e+06
   26980.6  188240  365260  1.2688e+06
   26986.5  190114  368590  1.28071e+06
   26992.3  192182  372953  1.29704e+06
   26999.2  194822  379611  1.32284e+06
   27006  196939  386282  1.34886e+06
   27011.9  199332  393502  1.37702e+06
   27018.7  201236  399749  1.40147e+06
   27025.6  203619  403901  1.41671e+06
   27032.5  206273  405876  1.42288e+06
   27039.3  208885  409209  1.43466e+06
   27046.2  211047  414655  1.45576e+06
   27053.1  213833  421753  1.48307e+06
   27059.9  216002  426936  1.50297e+06
   27067.8  218316  432084  1.52254e+06
   27074.7  220956  437756  1.54435e+06
   27081.6  223060  443293  1.56562e+06
   27089.4  225122  449695  1.59111e+06
   27097.3  227778  456619  1.61844e+06
   27104.2  230477  462551  1.64149e+06
   27112.1  232862  466583  1.65613e+06
   27120  235549  470495  1.6705e+06
   27127.9  237773  474017  1.68352e+06
   27135.8  240670  479128  1.7033e+06
   27143.7  243077  484651  1.72486e+06
   27151.6  245699  492193  1.75479e+06
   27159.5  247886  500511  1.78822e+06
   27167.5  250306  508772  1.82157e+06
   27176.4  252833  514696  1.84492e+06
   27184.3  255169  518469  1.85909e+06
   27193.2  257675  523229  1.87763e+06
   27201.2  260101  528312  1.89753e+06
   27210.1  262536  531936  1.91078e+06
   27219.1  265060  536540  1.92925e+06
   27227  267844  543459  1.95672e+06
   27236  270178  550051  1.98384e+06
   27244.9  272667  557723  2.01466e+06
   27253.9  274782  565092  2.04474e+06
   27262.9  277255  571133  2.06942e+06
   27272.9  279469  574871  2.08407e+06
   27281.8  281734  580171  2.10562e+06
   27290.8  284434  587563  2.13593e+06
   27299.8  286884  594132  2.16268e+06
   27309.8  288772  597581  2.17661e+06
   27318.9  291711  602284  2.1958e+06
   27328.9  293764  606959  2.21519e+06
   27338.9  296144  613624  2.24233e+06
   27347.9  298398  621584  2.27561e+06
   27358  300177  629988  2.31121e+06
   27368  302570  636514  2.33808e+06
   27378.1  304649  639826  2.35192e+06
   27388.1  306301  643433  2.36756e+06
   27398.2  308366  648455  2.38857e+06
   27408.3  310825  653855  2.41179e+06
   27419.4  312765  658276  2.43113e+06
   27429.5  314606  663572  2.4535e+06
   27439.6  316483  670286  2.48302e+06
   27450.7  318202  677054  2.51259e+06
   27460.8  320359  682735  2.53652e+06
   27472  322188  688028  2.56024e+06
   27482.1  323650  693339  2.58352e+06
   27493.2  325242  697746  2.60378e+06
   27504.4  327078  701782  2.62256e+06
   27515.6  328344  705142  2.63791e+06
   27526.8  329858  709927  2.66013e+06
   27538  331456  714397  2.68047e+06
   27549.2  333195  719576  2.70421e+06
   27560.4  334983  726163  2.7345e+06
   27571.6  335919  729151  2.74939e+06
   27582.8  337282  733587  2.7705e+06
   27595.1  338279  740051  2.80069e+06
   27606.3  339811  744857  2.82357e+06
   27618.6  340460  747313  2.83685e+06
   27629.9  342145  751412  2.85723e+06
   27642.2  342716  751238  2.86043e+06
   27653.5  344250  755916  2.88296e+06
   27665.8  345269  762686  2.91543e+06
   27678.1  346116  766667  2.93564e+06
   27690.5  346652  769817  2.9536e+06
   27702.8  347182  772913  2.97062e+06
   27715.2  347766  775215  2.98421e+06
   27727.6  348919  779662  3.00741e+06
   27739.9  350133  783562  3.02884e+06
   27752.3  350240  785722  3.04266e+06
   27764.8  351083  788450  3.05852e+06
   27778.2  350267  787479  3.06006e+06
   27790.6  349981  789301  3.07275e+06
   27803.1  351660  795288  3.10311e+06
   27816.6  349666  792636  3.09824e+06
   27829.1  353162  802183  3.14374e+06
   27836.3  354152  805580  3.16066e+06

File: CdO_10K_03.xdi
# XDI/1.0
# Column.1: energy eV
# Column.2: i0
# Column.3: itrans
# Column.4: irefer
# Beamline.name: SSRL 4-3
# Detector.I0: Ar 30cm
# Detector.I1: Kr 15cm
# Detector.I2: Kr 15cm
# Element.edge: K
# Element.symbol: Cd
# Mono.d_spacing: 1.92009
# Mono.name: Si(220)
# Mono.notes: unfocused, detuned 20% at E=27800eV
# Sample.formula: CdO
# Sample.name: CdO monteponite
# Sample.prep: powder, mixed with B(OH)3
# Sample.reference: Cd foil
# Sample.temperature: 10K
# Scan.start_time: 1995-06-16 13:03:55
# ///
#    Note: mono d_spacing is nominal!
#     exafs to K17
#     368  E XMU XMUR I0
#-------------
#   energy   i0   itrans  irefer
   26485  58698  142528  594124
   26504.7  58483  142193  594574
   26524.5  58451  142307  596957
   26545.3  58714  142971  602403
   26565.2  58754  143226  605434
   26585.1  58936  143591  609675
   26605  58816  143574  610846
   26625  58902  143755  613938
   26644.9  58879  143696  614904
   26665  58782  143358  613355
   26685  58820  142291  606267
   26687.9  58925  142094  605337
   26689.8  58973  141943  604031
   26692.7  58980  141347  599751
   26694.6  58913  140722  595243
   26697.4  58779  139317  585122
   26700.3  58764  137240  570384
   26702.2  58878  135446  558026
   26705.1  58844  130778  527202
   26708  58840  124388  488313
   26709.9  58827  119779  462229
   26712.7  58906  112005  422206
   26714.7  58773  107610  401482
   26717.5  58787  102913  380526
   26720.4  58704  101272  373793
   26722.3  58768  101805  376340
   26725.2  58822  104005  386332
   26727.1  58856  105577  393611
   26730  58781  107240  401398
   26732.9  58650  107834  404506
   26734.8  58813  108386  407060
   26737.7  58762  108719  408841
   26739.6  58611  108666  408796
   26742.4  58640  108595  408501
   26745.3  58450  107420  403403
   26747.2  58624  106828  400593
   26750.1  117241  210033  784803
   26752  117262  207560  774043
   26754  117163  205019  762869
   26755.9  117198  203204  755036
   26757.8  117438  202492  752105
   26759.7  117881  203183  755598
   26761.7  118024  204439  761194
   26763.6  118259  206703  771393
   26765.5  118691  209776  785208
   26768.4  119094  214217  805351
   26770.3  119320  216380  815100
   26773.2  119705  218301  823791
   26775.1  120431  219466  828677
   26778  120867  219335  827583
   26780.9  121208  218651  824246
   26782.8  121876  219167  825930
   26785.7  122704  219988  829205
   26788.6  123100  220807  832341
   26791.5  123882  222494  839571
   26794.4  124751  224277  847092
   26798.2  125417  225825  853623
   26801.1  126311  227776  861880
   26804  127283  229931  870877
   26807.9  128128  231560  877626
   26810.7  129019  232616  881237
   26814.6  129983  232549  880151
   26818.5  131338  233046  881264
   26822.3  132054  233422  882005
   26825.2  133091  235413  890195
   26829.1  134348  238636  903719
   26832.9  135650  242074  918365
   26836.8  136571  244658  929145
   26841.6  138052  248176  944167
   26845.5  139340  251304  957275
   26849.4  140667  254546  971030
   26854.2  141945  257704  984111
   26858.1  143672  260747  996836
   26862.9  145015  262478  1.00317e+06
   26866.8  146484  264345  1.01036e+06
   26871.6  147809  266021  1.0165e+06
   26876.5  149421  268787  1.0277e+06
   26881.3  151221  272635  1.04378e+06
   26886.2  153079  277014  1.06255e+06
   26891  154500  280537  1.07707e+06
   26895.9  156442  284058  1.09161e+06
   26900.7  157990  286262  1.10008e+06
   26906.6  159421  288155  1.1069e+06
   26911.4  161584  291819  1.12186e+06
   26916.3  162915  294558  1.13264e+06
   26922.1  165207  298973  1.15124e+06
   26928  166849  302668  1.1664e+06
   26932.8  168148  306076  1.18033e+06
   26938.7  170057  310924  1.20108e+06
   26944.5  172617  316888  1.22693e+06
   26950.3  174592  321863  1.24835e+06
   26956.2  176767  326389  1.26728e+06
   26962  179093  330007  1.28195e+06
   26967.9  180912  332190  1.28976e+06
   26973.8  183004  335115  1.3013e+06
   26980.6  185429  338879  1.31636e+06
   26986.5  187718  342707  1.33207e+06
   26992.3  189950  347014  1.3499e+06
   26999.2  192339  352766  1.3747e+06
   27006  194186  358505  1.39971e+06
   27011.9  196749  365523  1.43019e+06
   27018.7  199077  372130  1.45931e+06
   27025.6  201311  376124  1.47559e+06
   27032.5  203618  377722  1.48017e+06
   27039.3  205843  380020  1.48865e+06
   27046.2  208539  385876  1.51371e+06
   27053.1  211003  392016  1.54035e+06
   27059.9  213162  396971  1.56122e+06
   27067.8  215822  402399  1.58438e+06
   27074.7  218022  407008  1.60368e+06
   27081.6  220498  412750  1.62807e+06
   27089.4  223035  419492  1.65782e+06
   27097.3  225535  425781  1.68531e+06
   27104.2  228138  431323  1.70904e+06
   27112.1  230603  435351  1.72571e+06
   27120  232650  438178  1.73628e+06
   27127.9  235040  441795  1.75093e+06
   27135.8  237864  446537  1.77062e+06
   27143.7  240533  452086  1.79433e+06
   27151.6  242842  458569  1.82265e+06
   27159.5  245434  466860  1.86004e+06
   27167.5  248033  474995  1.89654e+06
   27176.4  250080  480029  1.91821e+06
   27184.3  253115  484899  1.93844e+06
   27193.2  255539  489232  1.9567e+06
   27201.2  258067  494313  1.97834e+06
   27210.1  260307  497578  1.99134e+06
   27219.1  262716  501672  2.00849e+06
   27227  265603  508283  2.03772e+06
   27236  268095  514824  2.06644e+06
   27244.9  270419  521679  2.09746e+06
   27253.9  272355  528381  2.12742e+06
   27262.9  274916  534460  2.15426e+06
   27272.9  277509  538772  2.17248e+06
   27281.8  279709  543584  2.19341e+06
   27290.8  282210  550243  2.22349e+06
   27299.8  284406  556205  2.24949e+06
   27309.8  286866  560692  2.26919e+06
   27318.9  288934  563746  2.28206e+06
   27328.9  291291  568715  2.30359e+06
   27338.9  293273  574251  2.32878e+06
   27347.9  295779  582087  2.36445e+06
   27358  297897  590721  2.40435e+06
   27368  299707  596107  2.42854e+06
   27378.1  301998  599759  2.44471e+06
   27388.1  304476  604557  2.46614e+06
   27398.2  306427  609092  2.48691e+06
   27408.3  308676  614044  2.50911e+06
   27419.4  310527  618169  2.52804e+06
   27429.5  312526  623410  2.55231e+06
   27439.6  314548  630097  2.58291e+06
   27450.7  315622  635537  2.60833e+06
   27460.8  317505  640457  2.63143e+06
   27472  319336  645471  2.65487e+06
   27482.1  321194  651013  2.68301e+06
   27493.2  323357  656738  2.70803e+06
   27504.4  324559  659661  2.72202e+06
   27515.6  326165  663510  2.74074e+06
   27526.8  328087  668821  2.76612e+06
   27538  329348  672648  2.78453e+06
   27549.2  331025  677438  2.80838e+06
   27560.4  331919  682205  2.83152e+06
   27571.6  333480  686389  2.85243e+06
   27582.8  335017  690814  2.87398e+06
   27595.1  336231  697352  2.907e+06
   27606.3  338183  702999  2.9347e+06
   27618.6  339120  705960  2.95009e+06
   27629.9  340502  709535  2.96846e+06
   27642.2  341502  710294  2.97486e+06
   27653.5  342961  714534  2.99641e+06
   27665.8  343790  720720  3.02767e+06
   27678.1  344768  724929  3.04986e+06
   27690.5  345709  728742  3.07102e+06
   27702.8  346222  731873  3.08843e+06
   27715.2  347364  735191  3.10665e+06
   27727.6  348644  739721  3.13153e+06
   27739.9  349552  743196  3.15031e+06
   27752.3  350644  747253  3.17322e+06
   27764.8  350775  748606  3.18284e+06
   27778.2  350212  748325  3.18584e+06
   27790.6  350331  750928  3.20197e+06
   27803.1  351753  756164  3.23072e+06
   27816.6  349840  754244  3.2262e+06
   27829.1  352680  761950  3.26649e+06
   27836.3  354503  766786  3.29164e+06