Folder: XASDataLibrary/data/Ce

Note: README
The XAS Data Library is designed to hold X-ray Absorption Spectra (EXAFS
and XANES) using an SQLite database, with array data encoded using JSON.
The principle goal for the library is as a proposed standard for storing
and exchanging XAS data. The implementation here is intended for initial
reference and comments. 

The idea is provide a format and set of tools for managing Libraries of
XAFS Data, and to be able to share these libraries between different
researchers and different analysis programs.  As the the base format of the
library will be created with SQLite, the SQL syntax and any third party
software that can use SQL and SQLite will be able to explore the data in
the format.  In addition, reference implementations of programmatically
interecting with the library will be provided.  

Ideally, a stand-alone GUI Data Browser and an on-line Library will be
built upon such a format.

See http://xafs.org/XasDataLibrary for additional information.


--Matt Newville  18-Feb-2011

File: CeO2.xdi
#XDI/1.0  XASDataLibrary/1.0
# Column.1: energy eV
# Column.2: i0
# Column.3: itrans
# Mono.d_spacing: 3.134770
# Mono.name: Si(111)
# Element.symbol: Ce
# Element.edge: L3
# Beamline.Name: APS 13-ID-E
# Beamline.xray_source:  3.6cm undulator
# Facility.Name:  APS
# Facility.Ring_Current: 102.0
# Detector.I0: 100 nA/V  200 mm He
# Detector.I1:   50 nA/V  100 mm N2
# Sample.name: CeO2
# Sample.formula: CeO2
# Sample.preparation: powder on tape
# Sample.description: CeO2
# Sample.temperature: room temperature
# Reference.mode: no reference spectra
# Scan.start_time: 2017-02-08 10:14:16
# ScanParameters.E0: 5723.000
# ScanParameters.Legend:  Start, Stop, Step, K-space, Time
# ScanParameters.Region1:    -50.000,   -15.000,     5.000  False  1.00
# ScanParameters.Region2:    -15.000,    15.000,     0.250  False  1.00
# ScanParameters.Region3:      1.984,    10.000,     0.051  True  1.00
# ///
#-----------------------
#   energy         i0            itrans
 5673   179098   252210
 5678   176994   251442
 5683   176532   252715
 5688   180061   259482
 5693   179700   261031
 5698   179763   262824
 5703   179677   263591
 5708   179900   263211
 5708.25   180511   263864
 5708.5   180621   264037
 5708.75   180518   263833
 5709   180506   263700
 5709.25   180395   263559
 5709.5   180759   263957
 5709.75   180763   263974
 5710   180655   263708
 5710.25   180495   263231
 5710.5   180256   262792
 5710.75   180575   263073
 5711   180594   262927
 5711.25   180635   262889
 5711.5   181826   264501
 5711.75   181596   263941
 5712   181529   263543
 5712.25   181388   263147
 5712.5   181682   263346
 5712.75   181624   263071
 5713   181894   263151
 5713.25   181300   261899
 5713.5   180878   260863
 5713.75   180955   260669
 5714   180740   260131
 5714.25   181074   260047
 5714.5   181024   259612
 5714.75   181190   259343
 5715   180670   258293
 5715.25   180703   257867
 5715.5   180660   257169
 5715.75   181072   257358
 5716   181006   256683
 5716.25   181043   256077
 5716.5   181058   255444
 5716.75   181132   254842
 5717   181031   253796
 5717.25   180679   252451
 5717.5   180966   251973
 5717.75   181112   251258
 5718   180556   249401
 5718.25   179999   247599
 5718.5   180638   246992
 5718.75   180507   245553
 5719   180356   243815
 5719.25   179696   241251
 5719.5   180445   240188
 5719.75   179536   237048
 5720   179793   234884
 5720.25   179420   231838
 5720.5   179321   228708
 5720.75   179683   225891
 5721   179808   222597
 5721.25   180070   218904
 5721.5   179870   214910
 5721.75   179760   211119
 5722   179696   207813
 5722.25   179512   204842
 5722.5   179890   202890
 5722.75   179897   200924
 5723   179599   198871
 5723.25   179795   197109
 5723.5   179482   194291
 5723.75   179086   190680
 5724   179311   187117
 5724.25   179665   183002
 5724.5   179220   177351
 5724.75   179684   171848
 5725   179501   165174
 5725.25   179187   157925
 5725.5   179465   150457
 5725.75   179437   142183
 5726   179455   133461
 5726.25   179658   124183
 5726.5   179559   114201
 5726.75   179844   104095
 5727   179680   93797.1
 5727.25   178976   83515.1
 5727.5   179435   74379.1
 5727.75   179255   66136.1
 5728   179407   59298.1
 5728.25   179260   53690.1
 5728.5   179406   49284.1
 5728.75   179209   45792.1
 5729   179030   43097.1
 5729.25   178852   40786.1
 5729.5   178852   38733.1
 5729.75   178642   36612.1
 5730   178542   34521.1
 5730.25   178690   32475.1
 5730.5   178056   30316.1
 5730.75   178792   28500.1
 5731   178062   26700.1
 5731.25   178335   25181.1
 5731.5   178529   23837.1
 5731.75   178455   22635.1
 5732   178145   21592.1
 5732.25   178364   20831.1
 5732.5   178315   20285.1
 5732.75   177928   19951.1
 5733   176846   19837.1
 5733.25   177134   20161.1
 5733.5   177877   20800.1
 5733.75   177177   21542.1
 5734   176604   22468.1
 5734.25   177553   23764.1
 5734.5   178075   25116.1
 5734.75   177898   26366.1
 5735   176904   27437.1
 5735.25   177079   28546.1
 5735.5   177718   29587.1
 5735.75   177998   30254.1
 5736   177298   30618.1
 5736.25   177520   30786.1
 5736.5   177247   30583.1
 5736.75   177152   30157.1
 5737   176931   29550.1
 5737.25   178359   29012.1
 5737.5   177800   28098.1
 5737.75   177142   27102.1
 5738   177034   26195.1
 5738.77   176835   23892.1
 5739.57   177137   23126.1
 5740.39   177214   23802.1
 5741.22   176918   25841.1
 5742.08   176769   29890.1
 5742.95   177098   36795.1
 5743.85   176987   45705.1
 5744.76   177095   54243.1
 5745.69   176722   61026.1
 5746.65   176942   66438.1
 5747.62   176732   70262.1
 5748.61   176548   73248.1
 5749.63   177046   76159.1
 5750.66   176849   78530.1
 5751.71   176990   80360.1
 5752.78   177535   81352.1
 5753.87   177470   80828.1
 5754.98   177529   79634.1
 5756.11   178412   78667.1
 5757.26   178725   77849.1
 5758.43   178470   77147.1
 5759.62   178222   75869.1
 5760.83   178305   73632.1
 5762.05   178361   71207.1
 5763.3   178185   69252.1
 5764.57   177748   67525.1
 5765.86   177484   65586.1
 5767.16   177428   63147.1
 5768.49   177334   60852.1
 5769.83   177185   59437.1
 5771.2   176770   59192.1
 5772.58   176464   59497.1
 5773.99   176597   59798.1
 5775.41   176630   60090.1
 5776.86   176233   60693.1
 5778.32   176368   62100.1
 5779.8   176234   63724.1
 5781.3   176483   65543.1
 5782.83   176455   67496.1
 5784.37   176435   69494.1
 5785.93   176832   71446.1
 5787.51   176846   72773.1
 5789.11   176691   73630.1
 5790.73   177016   74456.1
 5792.37   177496   74974.1
 5794.03   177755   75278.1
 5795.71   177264   75444.1
 5797.41   177067   76030.1
 5799.13   176676   76895.1
 5800.86   176258   77668.1
 5802.62   176394   78325.1
 5804.4   176280   78470.1
 5806.2   175934   78127.1
 5808.01   175730   77482.1
 5809.85   175144   76443.1
 5811.7   174359   75254.1
 5813.58   173768   74054.1
 5815.47   172455   72614.1
 5817.39   173204   72035.1
 5819.32   172984   71280.1
 5821.27   172132   70333.1
 5823.25   171963   69673.1
 5825.24   171808   69058.1
 5827.25   171833   68568.1
 5829.29   171377   68196.1
 5831.34   171909   68617.1
 5833.41   172495   69482.1
 5835.5   172283   70070.1
 5837.61   171853   70559.1
 5839.74   171303   70856.1
 5841.89   170064   71096.1
 5844.06   167797   71100.1
 5846.25   166390   71680.1
 5848.46   168182   73448.1
 5850.68   165709   73057.1
 5852.93   162755   72293.1
 5855.2   164557   73674.1
 5857.49   161957   72990.1
 5859.79   164425   74141.1
 5862.12   160719   72441.1
 5864.47   164899   74867.1
 5866.83   161586   73705.1
 5869.22   166775   76239.1
 5871.62   167731   76814.1
 5874.05   164343   75187.1
 5876.49   163532   74501.1
 5878.95   164034   74623.1
 5881.44   164887   75607.1
 5883.94   165715   77018.1
 5886.46   165961   78007.1
 5889   163411   77323.1
 5891.57   163532   77420.1
 5894.15   162484   76996.1
 5896.75   161714   76421.1
 5899.37   159404   75022.1
 5902.01   120992   56468.1
 5904.67   164382   76783.1
 5907.35   164543   76651.1
 5910.05   164516   76699.1
 5912.76   164556   76995.1
 5915.5   164853   77741.1
 5918.26   164146   78232.1
 5921.04   163020   78577.1
 5923.83   159710   77881.1
 5926.65   127854   62867.1
 5929.49   165304   82797.1
 5932.34   159189   80837.1
 5935.22   163652   83770.1
 5938.11   162774   83778.1
 5941.03   142376   73563.1
 5943.96   166186   86254.1
 5946.92   166814   86680.1
 5949.89   165537   85859.1
 5952.88   165253   85533.1
 5955.9   163614   84404.1
 5958.93   162198   83512.1
 5961.98   160322   82795.1
 5965.05   154887   80563.1
 5968.14   158964   83311.1
 5971.25   161904   85931.1
 5974.38   160642   86033.1
 5977.53   160515   86905.1
 5980.7   159945   87253.1
 5983.89   160653   88177.1
 5987.1   160986   88722.1
 5990.33   161078   88891.1
 5993.58   160427   88547.1
 5996.85   159620   87856.1
 6000.13   159032   87453.1
 6003.44   158766   87168.1
 6006.77   157785   86586.1
 6010.11   158024   87011.1
 6013.48   157768   87479.1
 6016.86   157319   87994.1
 6020.27   157386   89103.1
 6023.69   156923   90013.1
 6027.14   156491   90866.1
 6030.6   155715   91404.1
 6034.09   155087   91948.1
 6037.59   154554   92423.1
 6041.11   153560   92420.1
 6044.65   152686   92437.1
 6048.22   151951   92431.1
 6051.8   151286   92144.1
 6055.4   151060   92099.1
 6059.02   150504   91742.1
 6062.66   152032   92509.1
 6066.32   152363   92933.1
 6070   152398   93491.1
 6073.7   151347   93371.1
 6077.42   151067   93933.1
 6081.16   150478   94381.1
 6084.91   150081   94968.1
 6088.69   150091   95893.1
 6092.49   150059   96875.1
 6096.31   149573   97520.1
 6100.14   148130   97522.1
 6104   147993   98338.1

File: CePO4.xdi
#XDI/1.0  XASDataLibrary/1.0
# Column.1: energy eV
# Column.2: i0
# Column.3: itrans
# Mono.d_spacing: 3.134770
# Mono.name: Si(111)
# Element.symbol: Ce
# Element.edge: L3
# Beamline.Name: APS 13-ID-E
# Beamline.xray_source:  3.6cm undulator
# Facility.Name:  APS
# Facility.Ring_Current: 102.0
# Detector.I0: 100 nA/V  200 mm He
# Detector.I1: 100 nA/V  100 mm N2
# Sample.name: CePO4
# Sample.formula: CePO4
# Sample.preparation: powder on tape
# Sample.description: CePO4
# Sample.temperature: room temperature
# Reference.mode: no reference spectra
# Scan.start_time: 2017-02-08 10:29:33
# ScanParameters.E0: 5723.000
# ScanParameters.Legend:  Start, Stop, Step, K-space, Time
# ScanParameters.Region1:    -50.000,   -15.000,     5.000  False  1.00
# ScanParameters.Region2:    -15.000,    15.000,     0.250  False  1.00
# ScanParameters.Region3:      1.984,    10.000,     0.051  True  1.00
# ///
#-----------------------
#   energy         i0            itrans
 5673   171950   173582
 5678   169727   172977
 5683   172922   177595
 5688   173235   179265
 5693   172397   179683
 5698   173441   182224
 5703   173508   183463
 5708   172431   182846
 5708.25   174048   184505
 5708.5   174267   184732
 5708.75   174135   184608
 5709   174019   184489
 5709.25   173967   184311
 5709.5   174368   184868
 5709.75   174253   184605
 5710   174350   184745
 5710.25   174377   184787
 5710.5   174236   184651
 5710.75   173970   184227
 5711   173859   184083
 5711.25   174097   184325
 5711.5   173868   183944
 5711.75   174186   184287
 5712   174011   184075
 5712.25   173891   183830
 5712.5   173905   183788
 5712.75   173693   183411
 5713   173874   183612
 5713.25   173691   183400
 5713.5   173888   183535
 5713.75   173503   182861
 5714   173383   182584
 5714.25   173469   182544
 5714.5   174130   183343
 5714.75   174205   183294
 5715   173821   182584
 5715.25   173792   182373
 5715.5   174447   182789
 5715.75   174316   182449
 5716   174105   182075
 5716.25   174127   181722
 5716.5   173870   181197
 5716.75   174127   181140
 5717   173834   180329
 5717.25   173190   179333
 5717.5   173579   179257
 5717.75   173624   178756
 5718   173543   178297
 5718.25   174024   178164
 5718.5   174196   177621
 5718.75   173890   176617
 5719   173894   175838
 5719.25   173823   174641
 5719.5   173694   173398
 5719.75   173530   172212
 5720   173228   170947
 5720.25   173508   170120
 5720.5   173404   168940
 5720.75   173166   167606
 5721   173154   166566
 5721.25   173113   165230
 5721.5   173165   164093
 5721.75   173253   162696
 5722   172995   160728
 5722.25   173054   159085
 5722.5   173331   157321
 5722.75   173058   154801
 5723   172603   151834
 5723.25   172423   148953
 5723.5   172743   145865
 5723.75   173032   142171
 5724   173094   137908
 5724.25   173353   133292
 5724.5   173157   127440
 5724.75   173118   121033
 5725   173400   114342
 5725.25   173651   106832
 5725.5   173659   98416.9
 5725.75   173815   89788.9
 5726   173241   80630.9
 5726.25   173666   72386.9
 5726.5   173734   64387.9
 5726.75   173925   57409.9
 5727   173655   51481.9
 5727.25   173569   46736.9
 5727.5   173644   43163.9
 5727.75   173450   40648.9
 5728   173578   39250.9
 5728.25   173323   38814.9
 5728.5   173265   39430.9
 5728.75   173397   41063.9
 5729   173299   43460.9
 5729.25   172756   46419.9
 5729.5   172599   50104.9
 5729.75   172869   54341.9
 5730   172689   58626.9
 5730.25   172526   63077.9
 5730.5   172656   67630.9
 5730.75   172508   72020.9
 5731   171987   76158.9
 5731.25   172060   80343.9
 5731.5   172063   84312.9
 5731.75   172000   88039.9
 5732   171796   91528.9
 5732.25   172273   95154.9
 5732.5   172198   98287.9
 5732.75   172246   101357
 5733   172184   104169
 5733.25   171913   106601
 5733.5   171894   108849
 5733.75   171858   110962
 5734   171990   113091
 5734.25   171603   114690
 5734.5   171043   115939
 5734.75   170646   117045
 5735   170714   118320
 5735.25   169872   118959
 5735.5   169798   119955
 5735.75   170087   120990
 5736   169359   121200
 5736.25   168505   121361
 5736.5   169561   122481
 5736.75   169347   122692
 5737   169352   123027
 5737.25   169209   123266
 5737.5   168496   122972
 5737.75   168039   122890
 5738   168128   123156
 5738.77   169491   124442
 5739.57   169340   125254
 5740.39   169959   126564
 5741.22   170314   128132
 5742.08   170149   129488
 5742.95   169572   130396
 5743.85   169857   131563
 5744.76   170030   132112
 5745.69   170059   131951
 5746.65   170217   131595
 5747.62   170345   130654
 5748.61   171192   130106
 5749.63   171291   128847
 5750.66   171045   127151
 5751.71   171298   125753
 5752.78   171462   124213
 5753.87   171413   122560
 5754.98   172093   121612
 5756.11   171961   120220
 5757.26   171760   118961
 5758.43   172387   118733
 5759.62   172435   118521
 5760.83   172661   118923
 5762.05   172197   119230
 5763.3   172068   120352
 5764.57   171920   121879
 5765.86   171836   123698
 5767.16   171647   125488
 5768.49   171406   127077
 5769.83   171528   128675
 5771.2   171183   129812
 5772.58   171124   131087
 5773.99   170885   132098
 5775.41   170867   133206
 5776.86   171032   134288
 5778.32   170827   134753
 5779.8   171058   135403
 5781.3   170921   135369
 5782.83   171192   135551
 5784.37   171104   135232
 5785.93   171138   135006
 5787.51   171014   134762
 5789.11   171207   134756
 5790.73   171381   134853
 5792.37   171232   134696
 5794.03   171365   134965
 5795.71   171379   135133
 5797.41   170983   134864
 5799.13   171058   135025
 5800.86   170785   134833
 5802.62   170409   134563
 5804.4   170209   134491
 5806.2   169924   134384
 5808.01   169634   134391
 5809.85   169098   134516
 5811.7   168624   134729
 5813.58   167717   134442
 5815.47   167042   134612
 5817.39   166794   135056
 5819.32   167292   136218
 5821.27   167169   136747
 5823.25   167258   137563
 5825.24   167171   138267
 5827.25   167497   139192
 5829.29   167445   139708
 5831.34   166962   139993
 5833.41   167160   140729
 5835.5   166045   140389
 5837.61   167080   141846
 5839.74   166234   141730
 5841.89   166462   142483
 5844.06   165733   142320
 5846.25   166136   142809
 5848.46   165846   142561
 5850.68   166650   143550
 5852.93   166697   144154
 5855.2   164042   142320
 5857.49   164570   143143
 5859.79   165195   144338
 5862.12   165232   144902
 5864.47   164631   145002
 5866.83   164688   145704
 5869.22   164445   145822
 5871.62   164346   146101
 5874.05   163023   145291
 5876.49   162888   145538
 5878.95   162326   145668
 5881.44   160780   145042
 5883.94   162815   147849
 5886.46   161681   147458
 5889   160829   147546
 5891.57   159779   147525
 5894.15   158808   147623
 5896.75   156818   146693
 5899.37   154374   145008
 5902.01   117694   110807
 5904.67   160922   152917
 5907.35   160357   152957
 5910.05   158629   151775
 5912.76   160656   154299
 5915.5   160789   155053
 5918.26   159276   154159
 5921.04   158449   154045
 5923.83   154194   150500
 5926.65   124437   121526
 5929.49   160570   158251
 5932.34   155016   153444
 5935.22   160623   159795
 5938.11   159139   159030
 5941.03   140368   140656
 5943.96   163290   164453
 5946.92   163504   165449
 5949.89   161684   164415
 5952.88   161634   165126
 5955.9   160416   164657
 5958.93   159067   164049
 5961.98   157870   163597
 5965.05   151883   158214
 5968.14   155925   163229
 5971.25   158512   166764
 5974.38   157552   166669
 5977.53   157298   167323
 5980.7   156734   167623
 5983.89   156093   167868
 5987.1   155514   168037
 5990.33   158163   171823
 5993.58   157458   172011
 5996.85   156675   172105
 6000.13   156456   172697
 6003.44   155828   172982
 6006.77   155283   173177
 6010.11   155199   173910
 6013.48   155063   174701
 6016.86   155133   175732
 6020.27   154864   176455
 6023.69   154464   176982
 6027.14   154104   177524
 6030.6   153158   177325
 6034.09   152903   178023
 6037.59   151882   177726
 6041.11   151485   178215
 6044.65   150158   177614
 6048.22   149578   177860
 6051.8   149344   178465
 6055.4   148941   178981
 6059.02   149127   180169
 6062.66   149809   182187
 6066.32   149507   182829
 6070   149333   183670
 6073.7   148912   184252
 6077.42   148172   184421
 6081.16   147616   184774
 6084.91   147615   185908
 6088.69   147062   186284
 6092.49   146998   187279
 6096.31   146728   188052
 6100.14   145898   188120
 6104   144620   187527