Folder: XASDataLibrary/data/Co

Note: README
The XAS Data Library is designed to hold X-ray Absorption Spectra (EXAFS
and XANES) using an SQLite database, with array data encoded using JSON.
The principle goal for the library is as a proposed standard for storing
and exchanging XAS data. The implementation here is intended for initial
reference and comments. 

The idea is provide a format and set of tools for managing Libraries of
XAFS Data, and to be able to share these libraries between different
researchers and different analysis programs.  As the the base format of the
library will be created with SQLite, the SQL syntax and any third party
software that can use SQL and SQLite will be able to explore the data in
the format.  In addition, reference implementations of programmatically
interecting with the library will be provided.  

Ideally, a stand-alone GUI Data Browser and an on-line Library will be
built upon such a format.

See http://xafs.org/XasDataLibrary for additional information.


--Matt Newville  18-Feb-2011

File: co_metal_rt.xdi
# XDI/1.0
# Column.1: energy eV
# Column.2: i0
# Column.3: itrans
# Beamline.name: APS 13-ID-C
# Beamline.notes: vert slits = 0.3mm
# Detector.I0: N2 10cm
# Detector.I1: N2 10cm
# Element.edge: K
# Element.symbol: Co
# Mono.d_spacing: 3.13550
# Mono.name: Si(111)
# Mono.notes: focussed, detuned 50%
# Sample.formula: Co
# Sample.name: Co foil  Room Temperature
# Sample.prep: metal foil
# Sample.reference: none
# Sample.temperature: Room Temperature
# Scan.start_time: 2001-06-26 21:21:20
# ///
#    Note: mono d_spacing is nominal!
#     data from co_foil.002
#     418 E XMU I0
#-------------
#   energy   i0   itrans
    7519  161256  353515
    7539  121656  270331
    7559  116107  261040
    7579  116269  264413
    7599  115660  265923
    7619  115956  269544
    7639  116036  272470
    7659  116764  276630
    7679  116382  277179
    7689.5  118155  280997
    7690.5  119760  284509
    7691.5  120265  285459
    7692.5  120488  285810
    7693.5  120612  285816
    7694.5  120518  285375
    7695.5  120630  285121
    7696.5  120191  283555
    7697.5  120665  284053
    7698.5  120585  283204
    7699.5  120516  282101
    7700.5  120749  281532
    7701.5  120622  279721
    7702.5  120132  276740
    7703.5  120707  275514
    7704.5  120726  272020
    7705.5  120568  266019
    7706.5  119953  255332
    7707.5  120046  231946
    7708.5  120564  175272
    7709.5  120265  121534
    7710.5  120013  89915.1
    7711.5  120554  75043.1
    7712.5  120746  68849.1
    7713.5  121285  68360.1
    7714.5  120583  64493.1
    7715.5  121121  53567.1
    7716.5  120940  41998.1
    7717.5  120279  32257.1
    7718.5  120666  25537.1
    7719.5  120348  20831.1
    7720.5  120720  17821.1
    7721.5  120613  15195.1
    7722.5  120479  12524.1
    7723.5  120518  10220.1
    7724.5  120690  8695.1
    7725.5  120863  7687.1
    7726.5  120290  6940.1
    7727.5  120419  6400.1
    7728.5  120214  6052.1
    7729.5  120081  5906.1
    7730.5  120306  5855.1
    7731.5  120602  5797.1
    7732.5  120258  5702.1
    7733.5  120637  5739.1
    7734.98  120442  5980.1
    7737.01  120575  6519.1
    7739.11  120330  6933.1
    7741.29  120410  7278.1
    7743.55  120445  7479.1
    7745.88  119906  7346.1
    7748.28  119679  6847.1
    7750.77  120228  6177.1
    7753.33  116980  5252.1
    7755.96  123037  4900.1
    7758.67  120584  4549.1
    7761.46  120840  4766.1
    7764.32  120280  5541.1
    7767.27  120454  6750.1
    7770.28  120685  7862.1
    7773.37  120087  8429.1
    7776.54  120208  8832.1
    7779.78  120399  8941.1
    7783.1  119853  8424.1
    7786.5  119851  7777.1
    7789.97  120005  7134.1
    7793.52  120594  6812.1
    7797.15  119823  6280.1
    7800.85  120041  5520.1
    7804.62  120648  4844.1
    7808.47  120430  4700.1
    7812.4  120339  5077.1
    7816.41  120182  5621.1
    7820.49  120372  6556.1
    7824.65  120471  7688.1
    7828.88  120035  8819.1
    7833.19  120164  9569.1
    7837.57  120353  9572.1
    7842.03  119720  9256.1
    7846.57  119963  8973.1
    7851.19  120038  8551.1
    7855.87  119553  7982.1
    7860.64  120077  7091.1
    7865.48  120002  6170.1
    7870.4  119750  5503.1
    7875.39  118851  5245.1
    7880.46  119972  5670.1
    7885.61  120568  6793.1
    7890.83  119526  8402.1
    7896.13  119630  10160.1
    7901.5  120295  10697.1
    7906.95  119898  10036.1
    7912.48  119913  9393.1
    7918.08  119545  9092.1
    7923.76  119122  9015.1
    7929.52  120223  9081.1
    7935.35  120788  9114.1
    7941.25  119919  8842.1
    7947.24  119486  8218.1
    7953.3  119714  7714.1
    7959.43  119893  7620.1
    7965.64  119685  8200.1
    7971.93  119362  9189.1
    7978.29  120322  10238.1
    7984.73  119467  10637.1
    7991.25  120293  11292.1
    7997.84  119113  11465.1
    8004.51  119071  11362.1
    8011.25  119281  11075.1
    8018.07  119363  10777.1
    8024.97  119485  10636.1
    8031.94  119937  10568.1
    8038.99  120097  10385.1
    8046.11  119480  10273.1
    8053.31  120796  10619.1
    8060.59  119537  10942.1
    8067.94  119197  11516.1
    8075.37  119190  11899.1
    8082.88  119219  12267.1
    8090.46  119780  12875.1
    8098.11  119326  13111.1
    8105.85  120467  13504.1
    8113.65  119509  13319.1
    8121.54  119023  13152.1
    8129.5  119001  13020.1
    8137.54  119216  13056.1
    8145.65  119795  13154.1
    8153.84  119613  13210.1
    8162.11  119052  13505.1
    8170.45  120045  13993.1
    8178.87  119446  14275.1
    8187.36  120324  14617.1
    8195.93  119977  14879.1
    8204.58  119827  15218.1
    8213.3  119129  15480.1
    8222.1  119583  15908.1
    8230.97  119114  16063.1
    8239.92  120453  16365.1
    8248.95  119140  16170.1
    8258.05  119614  16217.1
    8267.23  119286  16223.1
    8276.48  119851  16536.1
    8285.81  119148  16765.1
    8295.22  119507  17208.1
    8304.7  118944  17494.1
    8314.26  119059  17834.1
    8323.9  119158  18272.1
    8333.61  96788.7  15158.1
    8343.4  128907  20345.1
    8353.26  121780  19396.1
    8363.2  119480  19261.1
    8373.21  119357  19493.1
    8383.31  118989  19627.1
    8393.47  119711  20094.1
    8403.72  119130  20099.1
    8414.04  120292  20654.1
    8424.43  119450  20728.1
    8434.9  119256  21133.1
    8445.45  118895  21345.1
    8456.08  119160  21825.1
    8466.78  119831  22384.1
    8477.55  119011  22489.1
    8488.41  119602  23008.1
    8499.33  118573  23123.1
    8510.34  119149  23661.1
    8521.42  119794  23992.1
    8532.58  119646  24260.1
    8543.81  119312  24589.1
    8555.12  119595  24956.1
    8566.5  119778  25365.1
    8577.97  119956  25724.1
    8589.5  119371  26149.1
    8601.11  119449  26456.1
    8612.81  120043  27070.1
    8624.57  119607  27373.1
    8636.41  119252  27637.1
    8648.33  119078  28070.1
    8660.32  118958  28467.1
    8672.39  119852  29154.1
    8684.54  120546  29709.1
    8696.76  119632  29935.1
    8709.06  119507  30312.1
    8721.43  119488  30852.1
    8733.88  119839  31322.1
    8746.41  131196  35091.1
    8759.01  122857  33212.1
    8771.69  118814  32554.1
    8784.44  118654  32975.1
    8797.27  118734  33530.1
    8810.18  118010  33915.1
    8823.17  118817  34631.1
    8836.23  118755  35168.1
    8849.36  120117  36079.1
    8862.57  118858  36190.1
    8875.86  119054  36807.1
    8889.22  119433  37460.1
    8902.66  119105  37920.1
    8916.18  118941  38412.1
    8929.77  120402  39456.1
    8943.43  120501  40055.1