Folder: XASDataLibrary/data/Cr (part 3)

File: cr2o3_rt_003.xdi
# XDI/1.0
# Column.1: energy eV
# Column.2: i0
# Column.3: itrans
# Column.4: irefer
# Beamline.name: SSRL 2-3
# Beamline.notes: vert slits = 0.6mm
# Detector.I0: N2 15cm
# Detector.I1: N2 30cm
# Detector.I2: N2 15cm
# Element.edge: K
# Element.symbol: Cr
# Mono.d_spacing: 3.13550
# Mono.name: Si(111)
# Mono.notes: unfocused, detuned 75%, clockwise at E=5990eV
# Sample.formula: Cr2O3
# Sample.name: Cr2O3
# Sample.prep: powder on tape (5 layers)
# Sample.reference: Cr foil
# Sample.temperature: room temp
# Scan.start_time: 1997-04-17 17:30:13
# ///
#    Note: mono d_spacing is nominal!
#     exafs to K16
#     396  E XMU XMUR I0
#-------------
#   energy   i0   itrans  irefer
    5759.99  26807.9  9316.5  1189.7
    5780.01  26738.9  9705.5  1254.7
    5799.97  26624.9  10088.5  1319.7
    5820  26533.9  10491.5  1390.7
    5839.97  26437.9  10894.5  1460.7
    5860.02  26343.9  11320.5  1533.7
    5879.99  26244.9  11741.5  1608.7
    5899.97  26132.9  12173.5  1688.7
    5920.02  26014.9  12610.5  1769.7
    5939.99  25894.9  13049.5  1852.7
    5959.97  25765.9  13476.5  1933.7
    5970.49  25700.9  13704.5  1974.7
    5971.53  25642.9  13697.5  1973.7
    5972.49  25382.9  13581.5  1956.7
    5973.53  25438.9  13629.5  1965.7
    5974.5  25697.9  13793.5  1989.7
    5975.46  25763.9  13855.5  2001.7
    5976.51  25727.9  13855.5  1998.7
    5977.47  25738.9  13883.5  2007.7
    5978.52  25718.9  13888.5  2008.7
    5979.48  25731.9  13917.5  2012.7
    5980.53  25714.9  13934.5  2013.7
    5981.49  25717.9  13958.5  2018.7
    5982.46  25717.9  13980.5  2025.7
    5983.51  25745.9  14014.5  2028.7
    5984.48  25745.9  14038.5  2031.7
    5985.52  25719.9  14041.5  2032.7
    5986.49  25230.9  13791.5  1992.7
    5987.46  23115.9  12643.5  1824.7
    5988.51  23346.9  12789.5  1840.7
    5989.48  24715.9  13540.5  1936.7
    5990.53  25211.9  13799.5  1922.7
    5991.5  25325.9  13751.5  1818.7
    5992.47  25379.9  13606.5  1726.7
    5993.52  25388.9  13673.5  1678.7
    5994.49  25419.9  13553.5  1623.7
    5995.47  25412.9  13321.5  1569.7
    5996.51  25426.9  13269.5  1550.7
    5997.49  25416.9  13303.5  1554.7
    5998.54  25415.9  13261.5  1539.7
    5999.51  25410.9  13058.5  1478.7
    6000.49  25401.9  12512.5  1361.7
    6001.46  25222.9  11410.5  1195.7
    6002.51  25024.9  10043.5  1014.7
    6003.49  25263.9  9248.5   911.7
    6004.47  25405.9  8940.5   862.7
    6005.52  25370.9  8346.5   788.699
    6006.5  25383.9  7588.5   704.7
    6007.47  25365.9  6899.5   630.7
    6008.53  25380.9  5987.5   537.7
    6009.5  25384.9  5487.5   484.7
    6010.94  25366.7  5558.25   477.465
    6012.82  25369.8  5209.3   449.581
    6014.78  25380  5282.38   480.812
    6016.81  25413.3  6162.5   571.16
    6018.93  25426.7  6560.67   600.624
    6021.12  25460.2  6975.88   624.203
    6023.39  25492.8  6967.13   622.897
    6025.73  25552.6  6732.43   608.708
    6028.16  25615.4  6799.75   609.635
    6030.58  25695.3  7333.14   647.678
    6033.16  25778.4  7931.55   693.837
    6035.82  25844.5  8338.01   728.111
    6038.56  25948.8  8696.51   756.501
    6041.37  26029.1  8878.05   770.008
    6044.26  26112.6  8900.64   774.63
    6047.24  26245.1  8874.27   778.368
    6050.29  26375.8  8936.94   790.221
    6053.42  26508.5  8791.64   793.191
    6056.56  26640.4  8552.39   790.277
    6059.85  26775.4  8409.18   789.478
    6063.22  26840.4  8209.02   777.795
    6066.68  26991.6  8108.89   763.229
    6070.13  27155.9  8144.81   750.777
    6073.75  27367.3  8243.78   742.442
    6077.37  27518.8  8457.78   771.222
    6081.15  27739.4  8681.82   817.119
    6084.93  27935.1  8979.91   869.131
    6088.8  28146.9  9309.03   905.26
    6092.83  28346.8  9640.2   906.503
    6096.86  28579.8  9945.41   895.864
    6100.98  28844.9  10062.7   880.339
    6105.18  29035.1  10162   896.931
    6109.46  29277.4  10372.3   958.639
    6113.83  29539.8  10632.7  1022.46
    6118.28  29809.4  10820.1  1058.4
    6122.74  30082  10981.6  1071.46
    6127.36  30330.7  11202.1  1091.63
    6131.99  30610.6  11421.6  1128.91
    6136.79  30908.5  11573.2  1152.32
    6141.59  31226.6  11695.8  1165.83
    6146.48  31501.7  11806.5  1170.47
    6151.46  31841  12037.2  1178.22
    6156.53  32150.3  12343.9  1204.08
    6161.6  32454.8  12461.7  1200.07
    6166.84  32794.3  12614.6  1194.17
    6172.1  33120  12930.5  1240.38
    6177.52  33474.8  13424.4  1324.71
    6182.95  33816.7  13734.3  1385.15
    6188.47  34177.6  14033.3  1427.71
    6194.08  34523.7  14375.4  1473.39
    6199.7  34881.9  14877.5  1533.19
    6205.5  35266.2  15449.6  1603.09
    6211.3  35663.6  15841.8  1663.12
    6217.2  36034.1  16134  1709.26
    6223.19  36435.7  16311.2  1722.52
    6229.2  36825.4  16481.5  1725.89
    6235.38  37178.2  16781.9  1731.38
    6241.56  36878.1  16909.3  1728.98
    6247.85  37894.1  17618.7  1803.7
    6254.23  38414.2  18132.1  1890.54
    6260.71  38857.5  18533.6  1988.49
    6267.2  39248.8  18872.2  2041.55
    6273.79  39671.2  19371.8  2102.74
    6280.48  40125.8  19942.4  2179.04
    6287.26  40541.4  20427.1  2239.45
    6294.06  40997.1  20862.8  2292.98
    6300.95  41408  21298.5  2360.63
    6307.95  41828.9  21695.3  2416.39
    6315.05  42317  22220.2  2479.27
    6322.16  42705.1  22792.1  2534.26
    6329.38  43169.4  23476  2600.38
    6336.69  43633.8  24156.9  2678.6
    6344.11  44082.2  24745  2759.94
    6351.55  44564.8  25271  2843.4
    6359.09  45044.5  25801.1  2925.98
    6366.65  45512.3  26369.2  3026.66
    6374.31  45944.1  26957.4  3122.47
    6382.07  46393.1  27648.6  3214.39
    6389.95  46846.2  28278.9  3301.43
    6397.84  47304.4  28863.2  3391.58
    6405.84  47782.7  29540.5  3482.85
    6413.95  48237.1  30252.9  3579.23
    6422.08  48707.6  30958.3  3688.73
    6430.32  49163.2  31715.8  3796.35
    6438.58  49613.9  32466.3  3884.08
    6446.95  50123.7  33239.8  3992.93
    6455.43  50575.7  34107.4  4128.89
    6463.93  51034.7  35007  4268.97
    6472.55  51476.8  35866.7  4398.17
    6481.28  51913  36672.4  4525.48
    6490.03  52390.4  37507.2  4650.91
    6498.9  52883.8  38339  4768.45
    6507.79  53308.4  39173.8  4895.11
    6516.8  53764  40027.7  5037.89
    6525.92  54299.8  40919.6  5182.78
    6535.07  54667.6  41801.6  5320.78
    6544.25  55118.6  42795.6  5470.91
    6553.54  55506.6  43790.7  5623.14
    6562.95  55925.8  44851.7  5782.5
    6572.4  56424.1  45981.9  5959.97
    6581.96  56842.4  46964.1  6124.56
    6591.55  57283.9  47947.3  6293.26
    6601.26  57698.5  48907.5  6454.07
    6611.09  58057.2  49867.8  6608.01
    6620.95  58427  50962.2  6788.06
    6630.85  58864.8  52081.5  6969.22
    6640.87  59246.8  53214  7154.5
    6650.92  59661.9  54384.4  7353.9
    6661.1  59987.1  55532.9  7549.41
    6671.31  60339.4  56655.5  7740.04
    6681.64  60737.8  57831.1  7937.79
    6692.01  60833.4  58711.7  8103.65
    6702.51  58474  57238.4  7936.62
    6713.04  62694.7  62200.1  8670.71
    6723.7  62624.5  62994.9  8822.92
    6734.4  62633.4  63930.7  9002.25
    6745.14  63165.5  65424.5  9258.69
    6756  59784.6  62852.4  8943.24
    6766.91  63976.9  68273.3  9762.92
    6777.94  64458.2  69829.3  10049.7
    6789.02  64318.6  70690.3  10230.6
    6800.23  63995.2  71367.4  10379.6
    6811.48  66977.8  75802.4  11081.8
    6822.77  65948.6  75810.6  11132
    6834.19  66095.5  77113.8  11381.4
    6845.66  66310.4  78541  11659.9
    6857.16  66479.5  79911.2  11918.5
    6868.81  66725.7  81391.5  12201.2
    6880.5  66881.9  82767.9  12473
    6892.33  67012.3  84147.3  12744.9
    6904.2  67037.8  85412.7  13008
    6916.11  67185.4  86902.2  13308.2
    6928.18  67253.1  88324.7  13594.5
    6940.28  67465.9  89883.2  13913.9
    6952.43  67556.8  91386.8  14227.4
    6964.62  67684.8  92932.4  14535
    6976.96  67811.9  94500.1  14861.8
    6989.35  67958.1  96079.8  15188.7
    7001.88  68041.4  97604.6  15506.7
    7014.47  68233.8  99288.4  15842.8
    7027.1  68256.3  100749  16157
    7039.77  68279  102246  16482.3
    7052.6  68525.7  104089  16856.8
    7065.48  68550.5  105644  17204.3
    7078.41  68683.5  107412  17582
    7091.39  68741.5  109025  17946.8
    7104.53  68658.6  110439  18268.8
    7111.06  68463.5  110897  18382.5

File: cr2o3_ssrl4_1_rt_001.xdi
# XDI/1.0
# Column.1: energy eV
# Column.2: i0
# Column.3: itrans
# Column.4: irefer
# Beamline.name: SSRL 4-1
# Detector.I0: N2 15cm
# Detector.I1: N2 30cm
# Detector.I2: N2 15cm
# Element.edge: K
# Element.symbol: Cr
# Mono.d_spacing: 3.13550
# Mono.name: Si(111)
# Mono.notes: unfocused, detuned 30%,counter clockwise at E=6200eV
# Sample.formula: Cr2O3
# Sample.name: Cr2O3 chromium sesquioxide
# Sample.prep: powder, mixed 1:100 with B(OH)3 by wt
# Sample.reference: none
# Sample.temperature: room temperature
# Scan.start_time: 1997-01-20 20:45:03
# ///
#    Note: mono d_spacing is nominal!
#     exafs to K15: not great data!!  fluorescence signal included
#     381  E XMU XMUF I0
#-------------
#   energy   i0   itrans  irefer
    5789  520599  39920.7  39067.9
    5810.25  523820  41975.7  41058.7
    5831.5  525324  44042.7  43059.5
    5852.75  528882  46335.7  45278.6
    5874  535232  48938.7  47796.9
    5895.25  538441  51434.7  50207.3
    5916.5  541259  54042.7  52722.1
    5937.75  544823  56896.7  55463.8
    5959  548157  59738.7  58199.3
    5960.52  548309  59930.7  58381.2
    5962.03  548511  60140.7  58582.1
    5963.54  548854  60354.7  58788.8
    5965.06  548274  60458.7  58883.6
    5966.58  549230  60749.7  59163
    5968.09  549402  60950.7  59353.6
    5969.6  549584  61139.7  59535
    5971.12  549244  61253.7  59641
    5972.64  549047  61122.7  59507.5
    5974.15  544701  61287.7  59662.2
    5975.67  544551  61688.7  60047.2
    5977.18  544660  61445.7  59802.1
    5978.7  548648  62115.7  60451.4
    5980.21  550571  62503.7  60821.7
    5981.73  551034  62723.7  61027
    5983.24  550107  62700.7  60994.7
    5984.76  538946  60478.7  58815.9
    5986.27  501377  59064.7  57399.6
    5987.79  540488  62465.7  60705
    5989.3  547779  62870.7  61021.7
    5990.82  549802  62790.7  60785.5
    5992.33  550699  62737.7  60664.3
    5993.85  550333  61813.7  59553.7
    5995.36  544631  61648.7  59347.9
    5996.88  542163  61294.7  58910
    5998.39  547542  60080.7  57307.8
    5999.91  551210  56827.7  53222.6
    6001.42  551981  53692.7  49314.1
    6002.94  552559  52109.7  47369.7
    6004.45  552686  49540.7  44348.5
    6005.97  552596  46650.7  41000.1
    6007.49  553058  44873.7  38823.7
    6009  553115  45024.7  38925.1
    6009.04  552985  45011.7  38912.8
    6009.15  552956  44986.6  38890.4
    6009.35  553879  45030.4  38921.8
    6009.62  553824  44918.2  38802.8
    6009.97  554182  44764.9  38632.2
    6010.39  555214  44597.5  38409.1
    6010.89  556032  44427.1  38173.7
    6011.47  556800  44430.6  38112.5
    6012.13  557826  44813.1  38453.5
    6012.86  559162  45666.4  39320.7
    6013.67  559645  46644.7  40396.7
    6014.56  561722  47691  41537.5
    6015.53  562756  48357.2  42271.1
    6016.57  564164  49007.2  42949.9
    6017.69  565575  49741.3  43728.2
    6018.88  567548  50470.3  44495.6
    6020.16  569744  50872.2  44894.2
    6021.51  571752  50817  44765.2
    6022.94  573431  50646.8  44480.6
    6024.44  575631  50811.5  44555.1
    6026.03  577711  51400.2  45108.4
    6027.69  580707  52639.8  46394
    6029.43  582840  53977.3  47830.1
    6031.24  585639  55277.7  49219.1
    6033.14  588544  56372.1  50365.7
    6035.1  591226  57367.5  51395.3
    6037.15  593814  58232.7  52280.1
    6039.27  597224  58947.9  52954.8
    6041.47  600024  59344  53275.5
    6043.75  603247  59645.1  53456.5
    6046.11  606781  60185.1  53900.1
    6048.54  610396  60660  54277.6
    6051.05  613826  60728.9  54184
    6053.64  617926  60684.7  53927.4
    6056.3  621250  60780.4  53852.8
    6059.04  624396  60794.1  53683.3
    6061.86  627281  60842.7  53547.5
    6064.76  631195  61177.2  53723
    6067.73  635551  61777.7  54189.2
    6070.78  639891  62494  54776.6
    6073.91  644238  63483.4  55675.5
    6077.11  648738  64567.6  56679.4
    6080.4  653915  65754.8  57772
    6083.76  657952  67040  59007.7
    6087.19  663501  68494  60399.2
    6090.7  668402  69911.1  61749.5
    6094.3  673279  71237  63004.5
    6097.97  678362  72173.9  63794.9
    6101.71  684291  73163.7  64598.7
    6105.53  689627  74320.4  65605.8
    6109.43  695290  75681.1  66841.2
    6113.41  701003  77013.7  68032.5
    6117.46  707086  78194.2  69028.5
    6121.6  712677  79381.8  70041.3
    6125.81  719133  80830.1  71315.9
    6130.09  725305  82213.5  72517.6
    6134.45  731332  83389.8  73478
    6138.89  737764  84545  74376.6
    6143.41  744013  85727.1  75312.9
    6148.01  750852  87169.2  76518.6
    6152.68  757974  88938.2  78080.8
    6157.43  764937  90503.2  79411
    6162.26  771542  91710.1  80315.2
    6167.16  778338  93232.9  81564.4
    6172.14  786213  95430.6  83570.8
    6177.2  793597  97726.4  85691.7
    6182.33  800817  99534.9  87238
    6187.55  807892  101405  88843.5
    6192.84  816355  103638  90805.3
    6198.2  823924  106146  93103.5
    6203.65  832260  108962  95722.9
    6209.17  839463  111220  97723.6
    6214.77  847888  113384  99543.1
    6220.45  856482  115302  101052
    6226.2  865305  117152  102456
    6232.03  873396  119227  104134
    6237.94  870972  120808  105509
    6243.92  871438  121730  106292
    6249.98  898767  127256  111119
    6256.12  907868  130064  113544
    6262.34  916911  132642  115668
    6268.63  926347  135542  118139
    6275.01  935118  138659  120874
    6281.45  944795  142037  123833
    6287.98  954808  145245  126574
    6294.58  964565  148363  129179
    6301.26  974195  151499  131794
    6308.02  983480  154572  134317
    6314.85  993257  158168  137412
    6321.77  1.00303e+06  161997  140755
    6328.76  1.01399e+06  166266  144519
    6335.82  1.02381e+06  170271  148006
    6342.97  1.03476e+06  174339  151465
    6350.19  1.04474e+06  178094  154578
    6357.48  1.05631e+06  182232  157996
    6364.86  1.06573e+06  186146  161256
    6372.31  1.07685e+06  190563  164964
    6379.84  1.08762e+06  195260  168979
    6387.45  1.09865e+06  199901  172884
    6395.13  1.11013e+06  204518  176671
    6402.89  1.12147e+06  209407  180776
    6410.73  1.13164e+06  214315  184910
    6418.65  1.14324e+06  219457  189221
    6426.64  1.15531e+06  224979  193887
    6434.71  1.16628e+06  230316  198363
    6442.86  1.17799e+06  235753  202895
    6451.08  1.18943e+06  241639  207903
    6459.38  1.20142e+06  247940  213323
    6467.76  1.21327e+06  254134  218597
    6476.22  1.22626e+06  260537  223936
    6484.75  1.23704e+06  266506  228889
    6493.36  1.25042e+06  273145  234360
    6502.05  1.26177e+06  279453  239531
    6510.82  1.27414e+06  286302  245206
    6519.66  1.28713e+06  293150  250769
    6528.58  1.30032e+06  300429  256791
    6537.58  1.31155e+06  307693  262800
    6546.65  1.3253e+06  315903  269711
    6555.8  1.33759e+06  323900  276421
    6565.03  1.35012e+06  332273  283444
    6574.33  1.3632e+06  340887  290645
    6583.72  1.3765e+06  349388  297601
    6593.18  1.38931e+06  357898  304475
    6602.72  1.40219e+06  366528  311465
    6612.33  1.41608e+06  375914  319204
    6622.02  1.42863e+06  385366  327039
    6631.79  1.44344e+06  395512  335404
    6641.64  1.45506e+06  405093  343288
    6651.56  1.4688e+06  415626  351972
    6661.56  1.48241e+06  426331  360795
    6671.64  1.49695e+06  437329  369789
    6681.8  1.50837e+06  447643  378186
    6692.03  1.52158e+06  458536  386977
    6702.34  1.53073e+06  468267  394784
    6712.73  1.50566e+06  463468  390317
    6723.19  1.55438e+06  488568  410832
    6733.73  1.582e+06  508135  427158
    6744.35  1.5913e+06  519862  436620
    6755.04  1.61221e+06  536586  450303
    6765.82  1.58808e+06  536969  450372
    6776.67  1.63353e+06  561449  470464
    6787.6  1.57796e+06  560792  469636
    6798.6  1.67886e+06  597590  499757
    6809.68  1.68554e+06  609479  509317
    6820.84  1.69697e+06  624027  521036
    6832.08  1.71307e+06  640672  534459
    6843.39  1.72312e+06  655412  546261
    6854.78  1.73658e+06  671929  559482
    6866.25  1.74954e+06  688600  572815

File: cr2o3_ssrl4_1_rt_002.xdi
# XDI/1.0
# Column.1: energy eV
# Column.2: i0
# Column.3: itrans
# Column.4: irefer
# Beamline.name: SSRL 4-1
# Detector.I0: N2 15cm
# Detector.I1: N2 30cm
# Detector.I2: N2 15cm
# Element.edge: K
# Element.symbol: Cr
# Mono.d_spacing: 3.13550
# Mono.name: Si(111)
# Mono.notes: unfocused, detuned 30%,counter clockwise at E=6200eV
# Sample.formula: Cr2O3
# Sample.name: Cr2O3 chromium sesquioxide
# Sample.prep: powder, mixed 1:100 with B(OH)3 by wt
# Sample.reference: none
# Sample.temperature: room temperature
# Scan.start_time: 1997-01-20 20:45:03
# ///
#    Note: mono d_spacing is nominal!
#     exafs to K15: not great data!!  fluorescence signal included
#     381  E XMU XMUF I0
#-------------
#   energy   i0   itrans  irefer
    5789  521696  40205.7  39346.7
    5810.25  525815  42352.7  41428
    5831.5  529231  44532.7  43541.8
    5852.75  533234  46882.7  45817.1
    5874  536524  49292.7  48142.5
    5895.25  539890  51824.7  50589.5
    5916.5  542919  54456.7  53126.7
    5937.75  545967  57245.7  55806
    5959  549142  60112.7  58564.3
    5960.52  549235  60311.7  58753.3
    5962.03  549865  60562.7  58994
    5963.54  550257  60776.7  59200
    5965.06  550289  60978.7  59392.2
    5966.58  550295  61158.7  59562.1
    5968.09  550547  61366.7  59760.6
    5969.6  550979  61576.7  59960.2
    5971.12  550824  61698.7  60075.8
    5972.64  549540  61447.7  59825.7
    5974.15  545980  61766.7  60128.5
    5975.67  546087  62138.7  60485.9
    5977.18  545901  61860.7  60206.6
    5978.7  550482  62604.7  60927.9
    5980.21  551883  62926.7  61234.5
    5981.73  552497  63165.7  61459.5
    5983.24  552276  63235.7  61516.7
    5984.76  538599  60556.7  58890.8
    5986.27  503401  59664.7  57984.2
    5987.79  542461  62942.7  61167
    5989.3  549344  63323.7  61455.7
    5990.82  551184  63232.7  61211.8
    5992.33  552191  63165.7  61072.8
    5993.85  550987  62144.7  59870.6
    5995.36  545186  62039.7  59727.6
    5996.88  543358  61663.7  59258.8
    5998.39  548778  60393.7  57575.3
    5999.91  552654  57096.7  53427.2
    6001.42  553002  53991.7  49563.8
    6002.94  553463  52373.7  47587.7
    6004.45  553838  49822.7  44568.4
    6005.97  553865  46889.7  41175.4
    6007.49  554188  45222.7  39114.8
    6009  554379  45385.7  39235.7
    6009.04  554366  45380.7  39232.9
    6009.15  554711  45386.6  39233.7
    6009.35  554684  45344.4  39189.6
    6009.62  555421  45281.2  39111.4
    6009.97  555626  45113.9  38921.7
    6010.39  556352  44911.5  38668.6
    6010.89  557352  44766.1  38458.6
    6011.47  557755  44756.6  38392.9
    6012.13  559446  45235.1  38826
    6012.86  560027  46031.4  39654.1
    6013.67  561132  47050.7  40764.3
    6014.56  562420  48000  41818
    6015.53  563852  48688.1  42565.4
    6016.57  565394  49358.3  43262.5
    6017.69  566989  50121.3  44070.3
    6018.88  568478  50784.3  44778.8
    6020.16  570265  51143.2  45132.8
    6021.51  572209  51085  44996.2
    6022.94  574596  50981.8  44770.7
    6024.44  576753  51163.5  44868.1
    6026.03  579148  51795.2  45459.8
    6027.69  581729  53020.7  46737
    6029.43  583943  54358.3  48179.9
    6031.24  586607  55650.8  49556.8
    6033.14  588976  56683.1  50649.2
    6035.1  592232  57767.4  51756.9
    6037.15  595065  58648.7  52657.2
    6039.27  597630  59255.9  53231
    6041.47  601266  59747  53638
    6043.75  604598  60056.1  53826.9
    6046.11  608183  60614.1  54286
    6048.54  611211  61013  54593.7
    6051.05  614508  61050.9  54465.4
    6053.64  618062  60963.7  54174.2
    6056.3  622235  61179.4  54203
    6059.04  624654  61111  53962.2
    6061.86  627884  61198.7  53859.3
    6064.76  632211  61578.2  54074.4
    6067.73  636012  62128.6  54497.8
    6070.78  640155  62828.1  55069.9
    6073.91  644802  63844.4  55994.5
    6077.11  649705  64976.6  57042.6
    6080.4  654152  66092.8  58071.2
    6083.76  659068  67486  59406.4
    6087.19  664072  68895.1  60753.3
    6090.7  668936  70286.1  62083.9
    6094.3  674335  71696  63411.4
    6097.97  679621  72663.9  64228.5
    6101.71  684915  73581.7  64968.9
    6105.53  690042  74710.4  65957.4
    6109.43  696235  76152.1  67255.4
    6113.41  701949  77475.7  68444.4
    6117.46  707608  78607.2  69396.9
    6121.6  712999  79775.7  70392.2
    6125.81  719995  81292.2  71726.1
    6130.09  725047  82532.5  72795.5
    6134.45  731883  83826.7  73863.8
    6138.89  738304  84985  74767.7
    6143.41  744671  86171.1  75702.6
    6148.01  751820  87662.2  76955
    6152.68  758414  89376.2  78468.4
    6157.43  765357  90938.2  79796.4
    6162.26  771595  92118.1  80672.5
    6167.16  779305  93759.9  82031.8
    6172.14  786780  95932.7  84019
    6177.2  793711  98173.4  86090.9
    6182.33  801485  100048  87690.5
    6187.55  808879  102007  89371.7
    6192.84  816574  104112  91225.6
    6198.2  824689  106721  93613.3
    6203.65  832953  109553  96248.7
    6209.17  840306  111824  98254.4
    6214.77  848644  113987  100074
    6220.45  857144  115911  101588
    6226.2  865251  117659  102904
    6232.03  873997  119812  104652
    6237.94  872563  121544  106157
    6243.92  871108  122385  106875
    6249.98  898377  127749  111555
    6256.12  908393  130691  114095
    6262.34  917760  133319  116257
    6268.63  926827  136192  118704
    6275.01  935958  139387  121510
    6281.45  945571  142726  124438
    6287.98  955171  145893  127137
    6294.58  964237  148908  129660
    6301.26  974435  152128  132346
    6308.02  984311  155275  134928
    6314.85  993645  158839  138005
    6321.77  1.00359e+06  162692  141363
    6328.76  1.01384e+06  166876  145049
    6335.82  1.02454e+06  171060  148698
    6342.97  1.03541e+06  175109  152147
    6350.19  1.04519e+06  178820  155211
    6357.48  1.05595e+06  182815  158509
    6364.86  1.06628e+06  186901  161917
    6372.31  1.07714e+06  191300  165611
    6379.84  1.08828e+06  196100  169718
    6387.45  1.09901e+06  200691  173572
    6395.13  1.11026e+06  205259  177322
    6402.89  1.12149e+06  210153  181429
    6410.73  1.13282e+06  215296  185773
    6418.65  1.1444e+06  220451  190086
    6426.64  1.1561e+06  225971  194739
    6434.71  1.16707e+06  231311  199231
    6442.86  1.17794e+06  236637  203664
    6451.08  1.18894e+06  242421  208591
    6459.38  1.20201e+06  249008  214265
    6467.76  1.21415e+06  255318  219608
    6476.22  1.22642e+06  261563  224820
    6484.75  1.23847e+06  267830  230024
    6493.36  1.25004e+06  274037  235137
    6502.05  1.26216e+06  280516  240450
    6510.82  1.27444e+06  287381  246144
    6519.66  1.28718e+06  294144  251631
    6528.58  1.29999e+06  301406  257623
    6537.58  1.31266e+06  309022  263958
    6546.65  1.32436e+06  316755  270437
    6555.8  1.33727e+06  324966  277344
    6565.03  1.35088e+06  333687  284668
    6574.33  1.36336e+06  342149  291732
    6583.72  1.37665e+06  350680  298705
    6593.18  1.38842e+06  358869  305314
    6602.72  1.4024e+06  367845  312602
    6612.33  1.41467e+06  376834  319987
    6622.02  1.42774e+06  386453  327965
    6631.79  1.44112e+06  396210  336010
    6641.64  1.45396e+06  406165  344214
    6651.56  1.46806e+06  416787  352972
    6661.56  1.48133e+06  427460  361759
    6671.64  1.49365e+06  437869  370261
    6681.8  1.50885e+06  449345  379647
    6692.03  1.51942e+06  459437  387729
    6702.34  1.52992e+06  469680  395984
    6712.73  1.50424e+06  464802  391459
    6723.19  1.55287e+06  489662  411806
    6733.73  1.57853e+06  508741  427682
    6744.35  1.58881e+06  520852  437464
    6755.04  1.60897e+06  537192  450834
    6765.82  1.58611e+06  537972  451230
    6776.67  1.62998e+06  562157  471077
    6787.6  1.57431e+06  561481  470234
    6798.6  1.67466e+06  598228  500310
    6809.68  1.68172e+06  610244  509981
    6820.84  1.69292e+06  624789  521670
    6832.08  1.70634e+06  640460  534268
    6843.39  1.71902e+06  656314  546996
    6854.78  1.73111e+06  672232  559759
    6866.25  1.7447e+06  689240  573368