Folder: XASDataLibrary/data/Cr (part 9)

File: cro2_rt_003.xdi
# XDI/1.0
# Column.1: energy eV
# Column.2: i0
# Column.3: itrans
# Column.4: irefer
# Beamline.name: SSRL 2-3
# Beamline.notes: vert slits = 0.6mm
# Detector.I0: N2 15cm
# Detector.I1: N2 30cm
# Detector.I2: N2 15cm
# Element.edge: K
# Element.symbol: Cr
# Mono.d_spacing: 3.13550
# Mono.name: Si(111)
# Mono.notes: unfocused, detuned 75%, clockwise at E=5990eV
# Sample.formula: CrO2
# Sample.name: CrO2
# Sample.prep: powder on tape (4 layers)
# Sample.reference: Cr foil
# Sample.temperature: room temp
# Scan.start_time: 1997-04-17 19:39:50
# ///
#    Note: mono d_spacing is nominal!
#     exafs to K16
#     396  E XMU XMUR I0
#-------------
#   energy   i0   itrans  irefer
    5759.99  25491.9  22303.5  2831.7
    5780.01  25397.9  22973.5  2953.7
    5799.97  25298.9  23665.5  3081.7
    5820  25207.9  24373.5  3212.7
    5839.97  25131.9  25100.5  3353.7
    5860.02  25057.9  25857.5  3495.7
    5879.99  24957.9  26582.5  3635.7
    5899.97  24847.9  27307.5  3781.7
    5920.02  24717.9  28023.5  3926.7
    5939.99  24621.9  28770.5  4074.7
    5959.97  24523.9  29504.5  4222.7
    5970.49  24427.9  29853.5  4295.7
    5971.53  24313.9  29753.5  4283.7
    5972.49  24074.9  29492.5  4248.7
    5973.53  24279.9  29786.5  4291.7
    5974.5  24455.9  30036.5  4328.7
    5975.46  24465.9  30099.5  4340.7
    5976.51  24451.9  30126.5  4345.7
    5977.47  24464.9  30173.5  4354.7
    5978.52  24449.9  30204.5  4360.7
    5979.48  24470.9  30269.5  4368.7
    5980.53  24448.9  30277.5  4372.7
    5981.49  24481.9  30366.5  4384.7
    5982.46  24456.9  30382.5  4385.7
    5983.51  24482.9  30453.5  4394.7
    5984.48  24479.9  30494.5  4402.7
    5985.52  24395.9  30425.5  4392.7
    5986.49  23612.9  29485.5  4252.7
    5987.46  21242.9  26549.5  3821.7
    5988.51  22876.9  28637.5  4106.7
    5989.48  23720.9  29726.5  4218.7
    5990.53  24049.9  30162.5  4119.7
    5991.5  24131.9  30229.5  3917.7
    5992.47  24168.9  30229.5  3777.7
    5993.52  24174.9  30233.5  3665.7
    5994.49  24201.9  30244.5  3589.7
    5995.47  24172.9  30212.5  3536.7
    5996.51  24213.9  30313.5  3531.7
    5997.49  24193.9  30350.5  3535.7
    5998.54  24193.9  30371.5  3491.7
    5999.51  24159.9  30287.5  3371.7
    6000.49  24155.9  30119.5  3222.7
    6001.46  23891.9  29474.5  3036.7
    6002.51  23851.9  29021.5  2891.7
    6003.49  24104.9  28907.5  2813.7
    6004.47  24178.9  28612.5  2726.7
    6005.52  24146.9  28241.5  2638.7
    6006.5  24157.9  27897.5  2561.7
    6007.47  24133.9  27412.5  2471.7
    6008.53  24139.9  26808.5  2369.7
    6009.5  24137.9  26196.5  2276.7
    6010.94  24119.7  25566.3  2169.46
    6012.82  24097.8  25421.3  2208.58
    6014.78  24120  25713.4  2343.81
    6016.81  24147.3  26196.5  2419.16
    6018.93  24158.7  26474.7  2399.62
    6021.12  24198.2  26896.9  2394.2
    6023.39  24248.8  27167.1  2433.9
    6025.73  24279.6  27159.4  2458.71
    6028.16  24351.4  27163.8  2421.63
    6030.58  24411.3  27489.1  2414.68
    6033.16  24503.4  28119.6  2450.84
    6035.82  24572.5  28683  2497.11
    6038.56  24664.8  29236.5  2534.5
    6041.37  24742.1  29649.1  2552.01
    6044.26  24857.6  29870.6  2587.63
    6047.24  24958.1  29979.3  2618.37
    6050.29  25084.8  30259.9  2671.22
    6053.42  25195.5  30537.6  2756.19
    6056.56  25336.4  30699.4  2832.28
    6059.85  25473.4  30783.2  2883.48
    6063.22  25520.4  30808  2906.8
    6066.68  25677.6  31017.9  2894.23
    6070.13  25846.9  31196.8  2848.78
    6073.75  26012.3  31512.8  2824.44
    6077.37  26202.8  32010.8  2919.22
    6081.15  26383.4  32513.8  3053.12
    6084.93  26579.1  32971.9  3183.13
    6088.8  26802.9  33457  3236.26
    6092.83  27008.8  33902.2  3160.5
    6096.86  27188.8  34360.4  3065.86
    6100.98  27441.9  34959.7  3037.34
    6105.18  27670.1  35531  3135.93
    6109.46  27903.4  36014.3  3324.64
    6113.83  28147.8  36466.7  3504.46
    6118.28  28400.4  37108.1  3615.4
    6122.74  28659  37838.6  3674.46
    6127.36  28913.7  38592.1  3751.63
    6131.99  29188.6  39270.6  3867.91
    6136.79  29465.5  39843.2  3958.32
    6141.59  29760.6  40422.8  4002.83
    6146.48  30037.7  40979.5  4044.47
    6151.46  30339  41568.2  4055.22
    6156.53  30673.3  42188  4100.08
    6161.6  30969.8  42897.7  4113.07
    6166.84  31290.3  43661.6  4119.17
    6172.1  31622  44440.5  4256.38
    6177.52  31951.8  45325.4  4465.71
    6182.95  32288.7  46215.3  4650.16
    6188.47  32643.6  47154.3  4790.72
    6194.08  32940.7  47995.4  4903.39
    6199.7  33330.9  48926.5  5040.18
    6205.5  33666.2  49761.6  5157.1
    6211.3  34025.6  50686.8  5315.12
    6217.2  34445.1  51757  5474.26
    6223.19  34821.7  52765.2  5555.52
    6229.2  35205.4  53808.5  5601.89
    6235.38  35448.2  54595.9  5610.37
    6241.56  35113.1  54478.3  5543.98
    6247.85  36261.1  56773.7  5790.7
    6254.23  36676.2  57896.1  6035.54
    6260.71  37078.5  58969.6  6310.49
    6267.2  37537.8  60174.2  6488.55
    6273.79  37946.2  61338.8  6639.74
    6280.48  38373.8  62507.4  6810.04
    6287.26  38778.4  63735.1  6960.45
    6294.06  39199.1  64989.8  7124.98
    6300.95  39627  66253.5  7326.63
    6307.95  40049.9  67530.3  7511.39
    6315.05  40567  68999.2  7690.27
    6322.16  41011.1  70359.1  7812.26
    6329.38  41432.4  71729  7948.38
    6336.69  41901.8  73191.9  8124.6
    6344.11  42347.2  74638  8321.95
    6351.55  42784.8  76096  8555.4
    6359.09  43206.5  77601.1  8806.97
    6366.65  43656.3  79127.2  9088.66
    6374.31  44121.1  80694.4  9344.47
    6382.07  44562.1  82283.6  9554.39
    6389.95  44994.2  83823.9  9773.42
    6397.84  45455.4  85431.2  10016.6
    6405.84  45898.7  87072.5  10233.9
    6413.95  46401.1  88857.9  10485.2
    6422.08  46863.6  90595.3  10757.7
    6430.32  47328.2  92336.8  11001.4
    6438.58  47754.9  94098.3  11218.1
    6446.95  48239.7  96004.8  11495.9
    6455.43  48664.7  97838.4  11810.9
    6463.93  49126.7  99717  12127
    6472.55  49595.8  101691  12434.2
    6481.28  50029  103599  12741.5
    6490.03  50496.4  105568  13062.9
    6498.9  50974.8  107627  13355.4
    6507.79  51456.4  109737  13682.1
    6516.8  51906  111798  14030.9
    6525.92  52351.8  113908  14388.8
    6535.07  52796.6  116028  14735.8
    6544.25  53209.6  118095  15060.9
    6553.54  53529.6  120048  15360.1
    6562.95  53984.8  122287  15717.5
    6572.4  54426.1  124496  16086
    6581.96  54877.4  126760  16469.6
    6591.55  55340.9  129072  16880.3
    6601.26  55764.5  131343  17267.1
    6611.09  56129.2  133572  17645
    6620.95  56630  136117  18071.1
    6630.85  57018.8  138427  18469.2
    6640.87  57431.8  140819  18901.5
    6650.92  57829.9  143178  19321.9
    6661.1  58230.1  145657  19758.4
    6671.31  58563.4  147957  20177
    6681.64  58909.8  150285  20582.8
    6692.01  59084.4  152257  20964.6
    6702.51  56294  146495  20261.6
    6713.04  60913.7  160117  22260.7
    6723.7  60869.5  161647  22570.9
    6734.4  60871.4  163310  22925.3
    6745.14  61432.5  166524  23505.7
    6756  60145.6  164670  23378.2
    6766.91  62351.9  172494  24618.9
    6777.94  62784.2  175476  25186.7
    6789.02  62842.6  177463  25607.6
    6800.23  62456.2  178192  25854.6
    6811.48  65177.8  187927  27414.7
    6822.77  64427.6  187686  27514
    6834.19  64585.5  190067  28003.4
    6845.66  64889.4  192956  28578.8
    6857.16  65137.5  195646  29124.5
    6868.81  65370.7  198409  29692.2
    6880.5  65619.9  201052  30243
    6892.33  65829.3  204060  30858.9
    6904.2  66051.8  206853  31450
    6916.11  66292.4  209726  32064.2
    6928.18  66358.1  212128  32613.5
    6940.28  66617.9  215221  33274.9
    6952.43  66822.8  218084  33908.4
    6964.62  67009.8  220914  34527.1
    6976.96  67184.9  223735  35152.8
    6989.35  67314.1  226479  35755.7
    7001.88  67483.4  229334  36392.7
    7014.47  67661.8  232283  37049.8
    7027.1  67840.3  235268  37720
    7039.77  67941  237978  38359.3
    7052.6  68050.7  240794  39005.8
    7065.48  68186.5  243557  39648.3
    7078.41  68364.5  246666  40364
    7091.39  68346.5  249098  40982.8
    7104.53  68412.6  251846  41652.8
    7111.06  68391.5  252967  41938.5

File: k2cr2o7_15K_001.xdi
# XDI/1.0
# Column.1: energy eV
# Column.2: i0
# Column.3: itrans
# Column.4: irefer
# Beamline.name: SSRL 2-3
# Beamline.notes: vert slits = 0.6mm
# Detector.I0: N2 15cm
# Detector.I1: N2 30cm
# Detector.I2: N2 15cm
# Element.edge: K
# Element.symbol: Cr
# Mono.d_spacing: 3.13550
# Mono.name: Si(111)
# Mono.notes: unfocused, detuned 75%, clockwise at E=5990eV
# Sample.formula: K2Cr2O7
# Sample.name: K2Cr2O7
# Sample.prep: powder on tape (4 layers)
# Sample.reference: Cr foil
# Sample.temperature: 15K
# Scan.start_time: 1997-04-18 12:31:25
# ///
#    Note: mono d_spacing is nominal!
#     exafs to K16
#     396  E XMU XMUR I0
#-------------
#   energy   i0   itrans  irefer
    5759.99  155473  4802.7   614.3
    5780.01  154202  4975.7   642.3
    5799.97  153213  5157.7   674.3
    5820  151606  5325.7   704.3
    5839.97  150461  5510.7   737.3
    5860.02  148864  5681.7   770.3
    5879.99  147735  5876.7   805.3
    5899.97  146235  6054.7   840.3
    5920.02  144782  6238.7   876.3
    5939.99  143459  6427.7   912.3
    5959.97  141960  6602.7   948.3
    5970.49  141112  6684.7   964.3
    5971.53  140758  6686.7   962.3
    5972.49  139276  6625.7   954.3
    5973.53  139380  6643.7   959.3
    5974.5  141129  6737.7   969.3
    5975.46  141291  6752.7   972.3
    5976.51  141039  6755.7   975.3
    5977.47  141006  6763.7   978.3
    5978.52  141078  6777.7   979.3
    5979.48  139979  6736.7   973.3
    5980.53  140235  6757.7   976.3
    5981.49  140097  6759.7   978.301
    5982.46  140300  6777.7   980.3
    5983.51  140367  6792.7   981.3
    5984.48  140451  6801.7   982.3
    5985.52  140986  6827.7   988.3
    5986.49  139078  6741.7   974.3
    5987.46  129470  6278.7   906.3
    5988.51  127224  6173.7   891.3
    5989.48  134415  6506.7   932.3
    5990.53  137727  6636.7   928.3
    5991.5  138381  6606.7   878.3
    5992.47  138625  6440.7   822.3
    5993.52  138634  5846.7   722.3
    5994.49  138508  4757.7   575.3
    5995.47  138403  3377.7   402.3
    5996.51  138538  4606.7   540.3
    5997.49  138481  5783.7   676.3
    5998.54  138074  6158.7   717.3
    5999.51  138344  6258.7   710.301
    6000.49  137931  6176.7   675.3
    6001.46  137280  5982.7   630.3
    6002.51  135645  5699.7   578.3
    6003.49  137177  5584.7   552.3
    6004.47  138128  5511.7   533.3
    6005.52  137902  5399.7   512.3
    6006.5  137939  5192.7   483.3
    6007.47  137681  4907.7   448.3
    6008.53  137683  4589.7   411.3
    6009.5  137565  4180.7   369.3
    6010.94  137667  3610.46   312.064
    6012.82  137299  3212.51   281.181
    6014.78  137176  3093.62   284.415
    6016.81  137395  3014.78   283.765
    6018.93  137492  2980   276.233
    6021.12  136972  3012.27   272.817
    6023.39  136674  3003.6   273.518
    6025.73  137308  2899.98   268.335
    6028.16  137847  2810.41   256.27
    6030.58  138227  2763.91   249.321
    6033.16  138111  2743.45   244.49
    6035.82  139038  2774.05   247.774
    6038.56  139290  2792.7   248.176
    6041.37  139096  2818.41   247.695
    6044.26  140095  2909.17   256.331
    6047.24  140546  3011.99   269.083
    6050.29  141319  3143.86   280.952
    6053.42  141374  3259.78   298.938
    6056.56  142206  3429.76   322.041
    6059.85  142594  3552.79   339.26
    6063.22  142972  3614.88   347.597
    6066.68  143477  3666.03   351.05
    6070.13  143759  3698.22   345.621
    6073.75  144603  3751.47   343.307
    6077.37  145492  3815.78   354.111
    6081.15  146768  3874.14   369.031
    6084.93  147828  3908.55   383.069
    6088.8  147613  3895.02   384.223
    6092.83  148206  3902.55   371.494
    6096.86  149482  3957.12   357.882
    6100.98  150835  4011.75   355.387
    6105.18  152378  4062.44   363.008
    6109.46  153564  4099.18   382.746
    6113.83  155027  4148.98   403.601
    6118.28  156194  4195.83   413.573
    6122.74  157595  4249.73   418.662
    6127.36  158602  4307.69   425.868
    6131.99  159942  4375.7   438.19
    6136.79  160058  4431.77   447.629
    6141.59  161580  4531.89   458.185
    6146.48  163034  4635.07   465.858
    6151.46  164787  4775.3   473.648
    6156.53  166351  4932.58   486.554
    6161.6  167030  5035.92   490.578
    6166.84  168895  5163.31   490.718
    6172.1  170172  5262.76   508.975
    6177.52  171593  5381.27   535.349
    6182.95  173550  5517.83   561.839
    6188.47  174332  5619.43   578.447
    6194.08  176230  5745.1   596.17
    6199.7  177427  5852.82   609.012
    6205.5  179121  5967.6   621.97
    6211.3  179720  6051.42   638.044
    6217.2  181628  6189.31   660.236
    6223.19  183762  6333.25   673.544
    6229.2  185628  6469.24   681.97
    6235.38  186878  6583.28   681.512
    6241.56  185359  6601.39   677.171
    6247.85  189522  6828.54   701.946
    6254.23  191798  6987.75   732.839
    6260.71  193943  7137.02   768.848
    6267.2  194511  7237.34   783.975
    6273.79  196746  7417.71   807.217
    6280.48  199028  7614.13   833.576
    6287.26  200794  7792.62   853.053
    6294.06  202340  7972.15   878.646
    6300.95  202039  8082.74   895.357
    6307.95  204724  8317.39   934.185
    6315.05  206598  8513.08   958.127
    6322.16  208085  8688.84   968.188
    6329.38  209819  8871.65   989.366
    6336.69  211262  9057.51  1012.66
    6344.11  213225  9261.43  1039.07
    6351.55  215751  9495.4  1073.6
    6359.09  217381  9704.43  1105.24
    6366.65  219092  9930.51  1146.01
    6374.31  220693  10155.6  1181.88
    6382.07  221790  10333.8  1208.88
    6389.95  223347  10546.1  1236.99
    6397.84  225198  10770.4  1271.22
    6405.84  226859  10999.7  1303.57
    6413.95  228174  11202.1  1336.03
    6422.08  229805  11433.6  1373.61
    6430.32  231137  11659.1  1401.3
    6438.58  232184  11875.7  1428.12
    6446.95  234288  12163.3  1471.05
    6455.43  235719  12432  1515.09
    6463.93  237102  12693.7  1556.26
    6472.55  238158  12939.5  1597.54
    6481.28  238636  13170.3  1628.93
    6490.03  240145  13454.2  1676.45
    6498.9  242126  13769.2  1723.08
    6507.79  243400  14056.2  1763.83
    6516.8  244101  14309.3  1809.69
    6525.92  243840  14520.4  1846.67
    6535.07  245237  14824.5  1895.77
    6544.25  245958  15094.8  1938.98
    6553.54  247774  15436  1983.32
    6562.95  249039  15755.4  2033.77
    6572.4  250763  16096.8  2088.33
    6581.96  251589  16379.2  2134.01
    6591.55  252406  16678.7  2184.81
    6601.26  253335  16987.2  2239.73
    6611.09  255332  17364.8  2297.76
    6620.95  255039  17601.5  2340.91
    6630.85  257174  18001.2  2407.18
    6640.87  257943  18328  2465.56
    6650.92  258356  18636.8  2520.06
    6661.1  254565  18626.7  2529.68
    6671.31  255456  18966.6  2599.41
    6681.64  255766  19273.6  2652.26
    6692.01  255264  19515.6  2699.23
    6702.51  245031  19000.7  2636.31
    6713.04  266047  20957.9  2924.51
    6723.7  262001  20962.1  2940.83
    6734.4  260796  21193.3  2981.26
    6745.14  262625  21675.6  3063.82
    6756  257144  21553  3062.48
    6766.91  269098  22892.4  3271.27
    6777.94  270208  23345.9  3357.17
    6789.02  266872  23413.4  3378.19
    6800.23  264415  23554  3419.32
    6811.48  279917  25311.6  3693.58
    6822.77  273831  25127.3  3681.95
    6834.19  272623  25400.1  3745.43
    6845.66  272341  25764.9  3818.03
    6857.16  272202  26143.7  3898.75
    6868.81  271839  26524.7  3968.59
    6880.5  271849  26946.6  4055.54
    6892.33  273208  27490.6  4169.61
    6904.2  272468  27849.7  4249.8
    6916.11  272305  28263.8  4330.11
    6928.18  272111  28691  4424.52
    6940.28  272448  29175.2  4521.06
    6952.43  271807  29554.5  4614.72
    6964.62  271680  30003.9  4707.48
    6976.96  271777  30478.3  4797.38
    6989.35  271975  30969.7  4899.38
    7001.88  273281  31604.2  5028.5
    7014.47  272477  31993.8  5123.74
    7027.1  273140  32551.4  5239.09
    7039.77  272704  32990.1  5335.57
    7052.6  271743  33386.8  5426.16
    7065.48  271417  33829.6  5531.86
    7078.41  268157  33919.4  5561.68
    7091.39  269509  34586.3  5692.62
    7104.53  271354  35337.3  5851.68
    7111.06  272091  35690.5  5925.5

File: k2cr2o7_rt_001.xdi
# XDI/1.0
# Column.1: energy eV
# Column.2: i0
# Column.3: itrans
# Column.4: irefer
# Beamline.name: SSRL 2-3
# Beamline.notes: vert slits = 0.6mm
# Detector.I0: N2 15cm
# Detector.I1: N2 30cm
# Detector.I2: N2 15cm
# Element.edge: K
# Element.symbol: Cr
# Mono.d_spacing: 3.13550
# Mono.name: Si(111)
# Mono.notes: unfocused, detuned 75%, clockwise at E=5990eV
# Sample.formula: K2Cr2O7
# Sample.name: K2Cr2O7
# Sample.prep: powder on tape (6 layers)
# Sample.reference: Cr foil
# Sample.temperature: room temp
# Scan.start_time: 1997-04-17 18:36:45
# ///
#    Note: mono d_spacing is nominal!
#     exafs to K16
#     396  E XMU XMUR I0
#-------------
#   energy   i0   itrans  irefer
    5759.99  25610.9  8938.5  1136.7
    5780.01  25547.9  9300.5  1197.7
    5799.97  25445.9  9666.5  1260.7
    5820  25364.9  10046.5  1326.7
    5839.97  25270.9  10430.5  1393.7
    5860.02  25176.9  10819.5  1463.7
    5879.99  25073.9  11213.5  1536.7
    5899.97  24956.9  11611.5  1611.7
    5920.02  24853.9  12022.5  1685.7
    5939.99  24736.9  12432.5  1763.7
    5959.97  24623.9  12843.5  1841.7
    5970.49  24539.9  13038.5  1879.7
    5971.53  24437.9  12999.5  1872.7
    5972.49  24190.9  12889.5  1859.7
    5973.53  24308.9  12971.5  1872.7
    5974.5  24557.9  13125.5  1894.7
    5975.46  24568.9  13154.5  1900.7
    5976.51  24558.9  13167.5  1902.7
    5977.47  24555.9  13186.5  1905.7
    5978.52  24567.9  13212.5  1911.7
    5979.48  24554.9  13219.5  1912.7
    5980.53  24573.9  13253.5  1917.7
    5981.49  24569.9  13270.5  1919.7
    5982.46  24585.9  13299.5  1922.7
    5983.51  24587.9  13311.5  1926.7
    5984.48  24599.9  13327.5  1925.7
    5985.52  24527.9  13301.5  1922.7
    5986.49  23931.9  12984.5  1878.7
    5987.46  21558.9  11696.5  1688.7
    5988.51  22729.9  12327.5  1774.7
    5989.48  23737.9  12848.5  1834.7
    5990.53  24125.9  12994.5  1794.7
    5991.5  24212.9  12888.5  1686.7
    5992.47  24262.9  12460.5  1571.7
    5993.52  24288.9  11087.5  1357.7
    5994.49  24299.9  8603.5  1030.7
    5995.47  24311.9  6789.5   802.699
    5996.51  24299.9  10048.5  1173.7
    5997.49  24299.9  11712.5  1368.7
    5998.54  24282.9  12230.5  1415.7
    5999.51  24271.9  12301.5  1383.7
    6000.49  24233.9  12103.5  1309.7
    6001.46  24045.9  11681.5  1214.7
    6002.51  23895.9  11214.5  1127.7
    6003.49  24161.9  11035.5  1082.7
    6004.47  24239.9  10875.5  1043.7
    6005.52  24247.9  10606.5   999.7
    6006.5  24223.9  10122.5   936.7
    6007.47  24227.9  9583.5   872.7
    6008.53  24204.9  8894.5   792.7
    6009.5  24221.9  8157.5   715.7
    6010.94  24201.7  7173.25   615.465
    6012.82  24209.8  6520.3   568.581
    6014.78  24196  6270.38   574.812
    6016.81  24218.3  6116.51   569.16
    6018.93  24259.7  6059.67   555.624
    6021.12  24272.2  6090.88   547.203
    6023.39  24325.8  6039.13   544.897
    6025.73  24368.6  5889.42   535.708
    6028.16  24462.4  5781.76   522.635
    6030.58  24514.3  5694.14   506.678
    6033.16  24598.4  5645.55   498.837
    6035.82  24668.5  5652.01   499.111
    6038.56  24738.8  5691.51   500.501
    6041.37  24837.1  5792.05   504.008
    6044.26  24930.6  5982.64   523.63
    6047.24  25048.1  6229.26   550.368
    6050.29  25163.8  6466.93   578.221
    6053.42  25294.5  6721.64   612.191
    6056.56  25436.4  7026.39   654.277
    6059.85  25519.4  7251.18   685.478
    6063.22  25607.4  7402.02   706.795
    6066.68  25767.6  7548.9   713.229
    6070.13  25917.9  7669.82   709.777
    6073.75  26096.3  7786.78   705.442
    6077.37  26289.8  7898.78   726.222
    6081.15  26469.4  7977.82   755.119
    6084.93  26677.1  8047.91   782.131
    6088.8  26866.9  8109.03   790.26
    6092.83  27058.8  8180.2   771.503
    6096.86  27282.8  8276.41   744.864
    6100.98  27512.9  8377.67   732.339
    6105.18  27751.1  8463.96   750.93
    6109.46  27980.4  8550.3   793.638
    6113.83  28189.8  8636.68   834.461
    6118.28  28482.4  8749.09   858.4
    6122.74  28739  8860.55   865.456
    6127.36  29018.7  8997.06   880.627
    6131.99  29258.6  9151.6   909.914
    6136.79  29542.5  9351.19   935.316
    6141.59  29834.6  9577.82   958.834
    6146.48  30148.7  9842.48   978.47
    6151.46  30445  10110.2   993.22
    6156.53  30742.3  10381.9  1016.08
    6161.6  31035.8  10644.7  1027.07
    6166.84  31365.3  10921.6  1034.17
    6172.1  31671  11182.5  1074.38
    6177.52  32005.8  11448.4  1130.71
    6182.95  32323.7  11711.3  1179.15
    6188.47  32669.6  11979.3  1220.72
    6194.08  32997.7  12240.4  1252.39
    6199.7  33342.9  12503.5  1288.19
    6205.5  33708.2  12783.6  1328.09
    6211.3  34075.6  13068.8  1371.12
    6217.2  34427.1  13348  1414.26
    6223.19  34819.7  13645.2  1437.52
    6229.2  35227.4  13947.5  1452.89
    6235.38  35501.2  14200.9  1460.38
    6241.56  35135.1  14195.3  1444.98
    6247.85  36268.1  14803.7  1510.7
    6254.23  36728.2  15154.1  1576.54
    6260.71  37116.5  15494.6  1655.49
    6267.2  37521.8  15852.2  1709.56
    6273.79  37920.2  16224.8  1755.74
    6280.48  38366.8  16648.4  1815.04
    6287.26  38751.4  17048.1  1862.45
    6294.06  39211.1  17492.8  1915.98
    6300.95  39619  17928.5  1979.63
    6307.95  40047.9  18373.3  2041.39
    6315.05  40481  18831.2  2096.27
    6322.16  40890.1  19275.1  2136.27
    6329.38  41345.4  19754  2183.38
    6336.69  41792.8  20244.9  2238.6
    6344.11  42243.2  20741  2303.94
    6351.55  42690.8  21255  2383.4
    6359.09  43164.5  21779.1  2467.97
    6366.65  43605.3  22293.2  2550.66
    6374.31  44042.1  22823.4  2634.47
    6382.07  44441.1  23332.6  2709.39
    6389.95  44830.2  23837.9  2776.43
    6397.84  45325.4  24427.2  2859.58
    6405.84  45766.7  24982.5  2933.85
    6413.95  46208.1  25553.9  3016.23
    6422.08  46650.6  26145.3  3104.73
    6430.32  47109.2  26754.8  3190.35
    6438.58  47562.9  27397.3  3277.08
    6446.95  48015.7  28042.8  3369.93
    6455.43  48425.7  28693.4  3473.9
    6463.93  48893.7  29376  3581.98
    6472.55  49336.8  30085.7  3686.17
    6481.28  49772  30801.4  3795.48
    6490.03  50243.4  31554.2  3912.91
    6498.9  50668.8  32299  4014.45
    6507.79  51058.4  33038.8  4123.11
    6516.8  51501  33820.7  4253.89
    6525.92  51948.8  34626.6  4381.78
    6535.07  52372.6  35432.6  4506.78
    6544.25  52763.6  36222.6  4621.91
    6553.54  53108.6  36999.7  4741.14
    6562.95  53523.8  37836.7  4868.5
    6572.4  53965.1  38685.9  5005.97
    6581.96  54415.4  39573.1  5153.55
    6591.55  54812.9  40438.3  5299.26
    6601.26  55208.5  41307.5  5447.07
    6611.09  55566.2  42167.8  5586.01
    6620.95  56039  43140.2  5748.06
    6630.85  56404.8  44028.6  5891.22
    6640.87  56821.8  45004  6055.51
    6650.92  57174.9  45930.4  6209.9
    6661.1  57552.1  46883.9  6372.41
    6671.31  57870.4  47809.5  6530.04
    6681.64  58223.8  48808.1  6700.79
    6692.01  58400.4  49656.7  6854.65
    6702.51  55774  48118.4  6668.62
    6713.04  60219.7  52734.1  7347.71
    6723.7  60113.5  53422.9  7482.92
    6734.4  60097.4  54229.7  7632.25
    6745.14  60600.5  55486.5  7856.69
    6756  58418.6  54289.4  7731.24
    6766.91  61503.9  58039.3  8304.91
    6777.94  61906.2  59294.3  8531.7
    6789.02  61944.6  60208.3  8707.6
    6800.23  61550.2  60721.4  8836.62
    6811.48  64346.8  64414.4  9423.76
    6822.77  63485.6  64487.6  9472.01
    6834.19  63592.5  65558.8  9678.37
    6845.66  63755.4  66726  9892.85
    6857.16  64025.5  67986.2  10131.5
    6868.81  64248.7  69246.5  10383.2
    6880.5  64440.9  70480.9  10618
    6892.33  64658.3  71780.3  10872.9
    6904.2  64829.8  73039.7  11120
    6916.11  65005.4  74343.2  11377.2
    6928.18  65077.1  75580.7  11634.5
    6940.28  65325.9  77011.2  11917.9
    6952.43  65425.8  78293.8  12183.4
    6964.62  65622.8  79736.4  12475.1
    6976.96  65777.9  81111.1  12761.8
    6989.35  65860.1  82447.8  13045.7
    7001.88  66041.4  83910.6  13335.7
    7014.47  66173.8  85329.4  13638.8
    7027.1  66292.3  86715.2  13931
    7039.77  66387  88107.1  14223.3
    7052.6  66496.7  89542.1  14520.8
    7065.48  66541.5  90896  14818.4
    7078.41  66701.5  92406  15148
    7091.39  66702.5  93737.1  15444.8
    7104.53  66734.6  95157.2  15760.8
    7111.06  66747.5  95839.5  15911.5