Folder: XASDataLibrary/data/Cr (part 5)

File: cr2s3_15K_003.xdi
# XDI/1.0
# Column.1: energy eV
# Column.2: i0
# Column.3: itrans
# Column.4: irefer
# Beamline.name: SSRL 2-3
# Beamline.notes: vert slits = 0.6mm
# Detector.I0: N2 15cm
# Detector.I1: N2 30cm
# Detector.I2: N2 15cm
# Element.edge: K
# Element.symbol: Cr
# Mono.d_spacing: 3.13550
# Mono.name: Si(111)
# Mono.notes: unfocused, detuned 75%, clockwise at E=5990eV
# Sample.formula: Cr2S3
# Sample.name: Cr2S3
# Sample.prep: powder on tape (4 layers)
# Sample.reference: Cr foil
# Sample.temperature: 15K
# Scan.start_time: 1997-04-18 16:16:50
# ///
#    Note: mono d_spacing is nominal!
#     exafs to K16
#     396  E XMU XMUR I0
#-------------
#   energy   i0   itrans  irefer
    5759.99  227698  9071.7  1163.3
    5780.01  227176  9431.7  1226.3
    5799.97  226651  9799.7  1289.3
    5820  226093  10183.7  1357.3
    5839.97  225632  10576.7  1426.3
    5860.02  225267  10988.7  1498.3
    5879.99  224696  11400.7  1573.3
    5899.97  224037  11811.7  1649.3
    5920.02  223220  12224.7  1726.3
    5939.99  222511  12645.7  1802.3
    5959.97  222124  13078.7  1886.3
    5970.49  221462  13281.7  1923.3
    5971.53  220425  13239.7  1919.3
    5972.49  217817  13107.7  1902.3
    5973.53  220171  13264.7  1924.3
    5974.5  221477  13366.7  1941.3
    5975.46  221806  13405.7  1946.3
    5976.51  221528  13409.7  1947.3
    5977.47  221656  13437.7  1951.3
    5978.52  221366  13446.7  1953.3
    5979.48  221663  13480.7  1957.3
    5980.53  221316  13481.7  1959.3
    5981.49  221797  13523.7  1966.3
    5982.46  222014  13552.7  1968.3
    5983.51  221881  13564.7  1972.3
    5984.48  221838  13581.7  1974.3
    5985.52  220802  13526.7  1965.3
    5986.49  211626  12973.7  1883.3
    5987.46  190914  11708.7  1698.3
    5988.51  208452  12783.7  1845.3
    5989.48  215860  13209.7  1883.3
    5990.53  218206  13232.7  1804.3
    5991.5  218686  12995.7  1686.3
    5992.47  218989  12749.7  1595.3
    5993.52  219026  12629.7  1537.3
    5994.49  218988  12639.7  1506.3
    5995.47  219281  12578.7  1479.3
    5996.51  219183  11998.7  1407.3
    5997.49  219151  10613.7  1244.3
    5998.54  219142  9017.7  1042.3
    5999.51  219055  8086.7   904.3
    6000.49  218768  7635.7   821.301
    6001.46  216206  7648.7   791.3
    6002.51  216562  8090.7   810.3
    6003.49  218769  8532.7   833.3
    6004.47  218971  8639.7   828.299
    6005.52  218927  8408.7   790.299
    6006.5  218715  8112.7   750.3
    6007.47  218794  7898.7   716.3
    6008.53  218854  7720.7   686.3
    6009.5  219085  7602.7   664.3
    6010.94  218848  7415.46   636.064
    6012.82  218924  7218.51   638.181
    6014.78  219112  7285.62   672.415
    6016.81  218899  7403.79   690.765
    6018.93  219184  7406   677.232
    6021.12  219116  7405.27   666.817
    6023.39  220004  7481.6   680.518
    6025.73  220444  7633.98   698.335
    6028.16  221093  7902.41   712.27
    6030.58  221764  8122.91   722.322
    6033.16  222262  8400.45   741.49
    6035.82  223241  8794.04   773.773
    6038.56  224064  8993.7   789.176
    6041.37  225001  9024.4   784.695
    6044.26  226098  8989.17   786.331
    6047.24  226926  8977.99   794.083
    6050.29  227985  8889.85   798.952
    6053.42  229236  8812.78   808.938
    6056.56  230494  8795.76   824.041
    6059.85  231646  8723.79   829.26
    6063.22  232518  8679.88   830.597
    6066.68  233762  8730.02   825.05
    6070.13  235434  8881.22   819.621
    6073.75  237255  8959.47   812.307
    6077.37  238793  9170.78   846.111
    6081.15  240478  9633.14   916.031
    6084.93  242253  10076.6   983.07
    6088.8  244281  10444  1018.22
    6092.83  246417  10725.5  1006.49
    6096.86  248192  10872.1   976.882
    6100.98  250303  10970.8   958.386
    6105.18  252385  11056.4   984.008
    6109.46  254772  11121.2  1035.75
    6113.83  257256  11040  1070.6
    6118.28  259603  11008.8  1081.57
    6122.74  261895  11091.7  1084.66
    6127.36  264125  11343.7  1109.87
    6131.99  266910  11715.7  1160.19
    6136.79  269675  12037.8  1202.63
    6141.59  272488  12350.9  1230.18
    6146.48  275241  12709.1  1259.86
    6151.46  278046  13019.3  1274.65
    6156.53  280747  13289.6  1297.55
    6161.6  283910  13568.9  1304.58
    6166.84  286614  13835.3  1307.72
    6172.1  289937  14155.8  1362.98
    6177.52  293213  14660.3  1450.35
    6182.95  296337  15053.8  1522.84
    6188.47  299563  15211.4  1552.45
    6194.08  302990  15338.1  1576.17
    6199.7  306428  15539.8  1608.01
    6205.5  309195  15789.6  1646.97
    6211.3  312817  16147.4  1704.05
    6217.2  316295  16506.3  1753.24
    6223.19  320061  16930.2  1788.54
    6229.2  323587  17427.2  1819.97
    6235.38  325658  17822.3  1836.51
    6241.56  322499  17910.4  1828.17
    6247.85  334399  18799.5  1926.95
    6254.23  338580  19356.7  2029.84
    6260.71  342413  19912  2140.85
    6267.2  346115  20375.3  2207.97
    6273.79  350401  20776.7  2259.22
    6280.48  354220  21046.1  2303.58
    6287.26  358375  21388.6  2348.05
    6294.06  362585  21891.1  2410.65
    6300.95  366432  22417.7  2490.36
    6307.95  371009  22927.4  2562.18
    6315.05  374862  23468.1  2626.13
    6322.16  379043  24088.8  2686.19
    6329.38  383637  24735.6  2753.37
    6336.69  388091  25395.5  2829.66
    6344.11  392604  26033.4  2915.07
    6351.55  396988  26573.4  3001.6
    6359.09  401256  27156.4  3095.24
    6366.65  405636  27891.5  3211
    6374.31  410120  28662.6  3324.88
    6382.07  414624  29368.8  3418.88
    6389.95  419103  30023.1  3508.99
    6397.84  423787  30663.4  3601.22
    6405.84  427982  31285.7  3686.56
    6413.95  432301  31926.1  3771.03
    6422.08  436816  32606.6  3876.61
    6430.32  441289  33358.1  3977.31
    6438.58  445910  34248.7  4095.12
    6446.95  450770  35154.3  4218.04
    6455.43  455098  35998  4357.09
    6463.93  460045  36958.7  4507.26
    6472.55  464764  37865.5  4638.54
    6481.28  469074  38769.3  4781.93
    6490.03  473705  39688.2  4921.45
    6498.9  478021  40565.2  5051.08
    6507.79  482570  41406.2  5180.83
    6516.8  487396  42315.3  5328.69
    6525.92  491937  43273.4  5491.68
    6535.07  496374  44236.5  5639.77
    6544.25  500964  45261.8  5790.99
    6553.54  504378  46167  5926.32
    6562.95  508532  47218.4  6086.77
    6572.4  513265  48392.7  6274.33
    6581.96  517723  49549.2  6466.01
    6591.55  522922  50726.7  6655.81
    6601.26  527009  51761.2  6832.73
    6611.09  531466  52925.8  7016.76
    6620.95  535648  54076.5  7210.91
    6630.85  540464  55318.2  7407.17
    6640.87  544669  56506  7611.56
    6650.92  549017  57696.8  7814.06
    6661.1  553225  58926.7  8029.67
    6671.31  557520  60162.6  8231.41
    6681.64  560894  61301.6  8430.26
    6692.01  564189  62460.6  8628.23
    6702.51  541694  60818.7  8431.31
    6713.04  580736  66053.9  9204.51
    6723.7  581801  67098.1  9386.82
    6734.4  583106  68224.3  9599.26
    6745.14  588604  69867.6  9887.82
    6756  581735  70047  9968.49
    6766.91  598180  73015.4  10450.3
    6777.94  603244  74701.9  10745.2
    6789.02  604922  75908.5  10974.2
    6800.23  602871  76674  11140.3
    6811.48  624625  80534.6  11758.6
    6822.77  621448  81267.3  11932.9
    6834.19  624076  82724  12207.4
    6845.66  626098  84161.8  12481
    6857.16  630298  85919.7  12799.7
    6868.81  634274  87717.7  13134.6
    6880.5  637455  89434.6  13471.6
    6892.33  640507  91119.7  13803.6
    6904.2  643705  92889.7  14151.8
    6916.11  646486  94620.8  14485.1
    6928.18  648945  96341  14826.5
    6940.28  651574  98071.2  15179.1
    6952.43  654360  99876.6  15542.7
    6964.62  656959  101659  15903.5
    6976.96  660499  103629  16290.4
    6989.35  662725  105419  16667.4
    7001.88  665233  107281  17046.5
    7014.47  667272  109071  17420.7
    7027.1  670105  111017  17814.1
    7039.77  672389  112885  18205.6
    7052.6  675682  114982  18637.2
    7065.48  678019  116977  19059.9
    7078.41  679751  118892  19474.7
    7091.39  681448  120825  19883.6
    7104.53  683081  122767  20310.7
    7111.06  684360  123828  20536.5

File: cr2s3_100K_001.xdi
# XDI/1.0
# Column.1: energy eV
# Column.2: i0
# Column.3: itrans
# Column.4: irefer
# Beamline.name: SSRL 2-3
# Beamline.notes: vert slits = 0.6mm
# Detector.I0: N2 15cm
# Detector.I1: N2 30cm
# Detector.I2: N2 15cm
# Element.edge: K
# Element.symbol: Cr
# Mono.d_spacing: 3.13550
# Mono.name: Si(111)
# Mono.notes: unfocused, detuned 75%, clockwise at E=5990eV
# Sample.formula: Cr2S3
# Sample.name: Cr2S3
# Sample.prep: powder on tape (4 layers)
# Sample.reference: Cr foil
# Sample.temperature: 100K
# Scan.start_time: 1997-04-18 17:59:32
# ///
#    Note: mono d_spacing is nominal!
#     exafs to K16
#     396  E XMU XMUR I0
#-------------
#   energy   i0   itrans  irefer
    5759.99  222218  9172.7  1169.3
    5780.01  221875  9543.7  1231.3
    5799.97  221333  9910.7  1294.3
    5820  221035  10306.7  1365.3
    5839.97  220383  10693.7  1433.3
    5860.02  220005  11102.7  1506.3
    5879.99  219342  11512.7  1581.3
    5899.97  218766  11928.7  1657.3
    5920.02  217784  12334.7  1733.3
    5939.99  217258  12762.7  1816.3
    5959.97  216778  13195.7  1895.3
    5970.49  216225  13395.7  1935.3
    5971.53  215021  13342.7  1926.3
    5972.49  212527  13204.7  1909.3
    5973.53  215110  13392.7  1936.3
    5974.5  216307  13486.7  1948.3
    5975.46  216217  13503.7  1951.3
    5976.51  216396  13532.7  1960.3
    5977.47  216444  13558.7  1963.3
    5978.52  216743  13593.7  1970.3
    5979.48  216735  13612.7  1974.3
    5980.53  216329  13605.7  1975.3
    5981.49  216262  13626.7  1975.3
    5982.46  216233  13637.7  1979.3
    5983.51  216644  13679.7  1983.3
    5984.48  216893  13711.7  1987.3
    5985.52  215626  13643.7  1975.3
    5986.49  205631  13015.7  1883.3
    5987.46  186797  11833.7  1710.3
    5988.51  204471  12952.7  1862.3
    5989.48  211169  13345.7  1893.3
    5990.53  213282  13343.7  1807.3
    5991.5  213807  13106.7  1689.3
    5992.47  214138  12866.7  1604.3
    5993.52  214221  12763.7  1544.3
    5994.49  214503  12799.7  1515.3
    5995.47  214620  12709.7  1487.3
    5996.51  214728  12101.7  1411.3
    5997.49  214506  10663.7  1243.3
    5998.54  214558  9078.7  1041.3
    5999.51  214628  8169.7   904.3
    6000.49  213588  7713.7   821.3
    6001.46  210905  7739.7   794.3
    6002.51  211665  8199.7   814.3
    6003.49  213866  8634.7   837.3
    6004.47  213954  8717.7   828.3
    6005.52  213820  8472.7   790.3
    6006.5  213951  8193.7   752.299
    6007.47  213790  7968.7   718.3
    6008.53  213482  7775.7   689.3
    6009.5  213967  7673.7   667.3
    6010.94  214002  7494.45   638.064
    6012.82  213852  7293.51   642.181
    6014.78  213713  7361.62   674.415
    6016.81  214082  7493.78   693.764
    6018.93  214313  7492   678.233
    6021.12  214591  7508.27   670.817
    6023.39  215015  7571.6   681.518
    6025.73  215396  7721.98   698.335
    6028.16  215945  7990.41   712.27
    6030.58  216526  8209.9   722.321
    6033.16  217632  8520.45   743.49
    6035.82  218285  8897.05   776.774
    6038.56  218760  9080.7   787.176
    6041.37  219994  9121.4   785.695
    6044.26  220727  9066.17   785.331
    6047.24  221777  9069.99   793.083
    6050.29  223376  9001.85   794.952
    6053.42  224200  8909.78   804.938
    6056.56  225489  8897.76   822.041
    6059.85  226788  8834.79   828.26
    6063.22  227092  8772.88   828.597
    6066.68  228987  8848.03   826.05
    6070.13  230591  8997.22   820.621
    6073.75  232108  9070.47   813.307
    6077.37  234072  9320.77   849.111
    6081.15  235538  9779.14   918.031
    6084.93  237479  10225.6   986.069
    6088.8  239362  10586  1021.22
    6092.83  241268  10856.5  1008.49
    6096.86  243127  10998.1   976.882
    6100.98  245152  11087.8   960.387
    6105.18  247543  11205.4   987.008
    6109.46  249602  11251.2  1037.75
    6113.83  251728  11167  1074.6
    6118.28  254376  11168.8  1087.57
    6122.74  256363  11243.7  1089.66
    6127.36  259197  11518.7  1118.87
    6131.99  261698  11864.7  1170.19
    6136.79  264401  12179.8  1208.63
    6141.59  267024  12493.9  1237.18
    6146.48  270021  12866.1  1268.86
    6151.46  272599  13178.3  1284.65
    6156.53  275307  13459.6  1307.55
    6161.6  278035  13729.9  1315.58
    6166.84  280896  14017.3  1322.72
    6172.1  284099  14337.8  1374.98
    6177.52  287241  14821.3  1463.35
    6182.95  290258  15192.8  1530.84
    6188.47  293266  15353.4  1560.45
    6194.08  296807  15510.1  1585.17
    6199.7  300493  15730.8  1619.01
    6205.5  303889  16026.6  1662.97
    6211.3  306946  16353.4  1716.04
    6217.2  310610  16735.3  1771.24
    6223.19  314200  17178.2  1807.54
    6229.2  317869  17674.2  1839.97
    6235.38  319552  18049.3  1855.51
    6241.56  316694  18143.4  1844.17
    6247.85  328254  19053.6  1944.95
    6254.23  332652  19630.8  2048.84
    6260.71  336319  20169  2158.85
    6267.2  340191  20634.3  2227.97
    6273.79  344138  21019.7  2275.22
    6280.48  348136  21336.1  2326.58
    6287.26  352174  21699.6  2374.05
    6294.06  355660  22164.2  2437.65
    6300.95  359934  22707.7  2516.36
    6307.95  364068  23201.4  2590.19
    6315.05  368243  23774.1  2657.13
    6322.16  372697  24406.8  2713.19
    6329.38  377120  25050.6  2779.37
    6336.69  380940  25681.5  2851.66
    6344.11  385573  26332.4  2943.07
    6351.55  390038  26900.4  3035.6
    6359.09  394422  27534.4  3130.25
    6366.65  398233  28228.5  3247.01
    6374.31  402669  28979.6  3362.88
    6382.07  407951  29743.8  3459.88
    6389.95  411209  30321.1  3542.99
    6397.84  415401  30938.4  3633.22
    6405.84  419905  31587.7  3721.57
    6413.95  424506  32265.1  3816.03
    6422.08  429773  33038.6  3931.61
    6430.32  433610  33761.1  4028.3
    6438.58  437476  34597.7  4127.12
    6446.95  441919  35455.3  4248.05
    6455.43  446815  36365  4396.09
    6463.93  451382  37305.7  4547.26
    6472.55  455465  38168.5  4675.54
    6481.28  460192  39110.3  4819.93
    6490.03  465299  40082.2  4966.45
    6498.9  469681  40975.2  5093.08
    6507.79  473936  41818.2  5220.83
    6516.8  478396  42720.2  5367.69
    6525.92  483031  43689.4  5527.67
    6535.07  488177  44739.5  5692.77
    6544.25  492384  45715.7  5841.98
    6553.54  496492  46715  5988.32
    6562.95  500912  47800.4  6147.77
    6572.4  505541  48960.7  6335.33
    6581.96  509903  50112.2  6525.02
    6591.55  514184  51200.7  6709.81
    6601.26  518476  52291.2  6887.73
    6611.09  523105  53483.8  7079.76
    6620.95  527719  54707.5  7277.91
    6630.85  531854  55883.2  7473.17
    6640.87  536061  57079  7675.56
    6650.92  540557  58310.8  7886.06
    6661.1  544507  59518.7  8096.68
    6671.31  548935  60758.6  8306.41
    6681.64  552636  61965.6  8518.26
    6692.01  555119  63059.6  8707.23
    6702.51  532098  61287.7  8501.31
    6713.04  571291  66662.9  9287.52
    6723.7  572278  67704.1  9469.83
    6734.4  573939  68883.4  9689.27
    6745.14  579731  70554.7  9982.82
    6756  574514  70930  10090.5
    6766.91  589308  73740.4  10548.3
    6777.94  593815  75357.9  10833.2
    6789.02  596115  76682.4  11084.2
    6800.23  593659  77389  11256.3
    6811.48  614678  81247.7  11874.6
    6822.77  611676  81966.3  12039.9
    6834.19  614478  83479.1  12322.4
    6845.66  616878  84973.9  12603
    6857.16  620685  86691.7  12924.8
    6868.81  623852  88380.6  13244.6
    6880.5  627426  90142.6  13582.5
    6892.33  630964  91917.6  13923.6
    6904.2  634211  93691.7  14267.8
    6916.11  636980  95411.8  14615.1
    6928.18  639357  97129  14949.5
    6940.28  642405  98966.2  15322.1
    6952.43  645127  100774  15691.7
    6964.62  649364  102820  16085.5
    6976.96  651466  104582  16443.4
    6989.35  655852  106714  16868.4
    7001.88  658898  108662  17271.5
    7014.47  660793  110465  17646.7
    7027.1  662392  112242  18022.1
    7039.77  665085  114196  18419.6
    7052.6  667461  116168  18829.2
    7065.48  669933  118185  19265.9
    7078.41  672389  120227  19693.7
    7091.39  674159  122177  20124.6
    7104.53  675423  124068  20543.7
    7111.06  676519  125100  20764.5

File: cr2s3_100K_002.xdi
# XDI/1.0
# Column.1: energy eV
# Column.2: i0
# Column.3: itrans
# Column.4: irefer
# Beamline.name: SSRL 2-3
# Beamline.notes: vert slits = 0.6mm
# Detector.I0: N2 15cm
# Detector.I1: N2 30cm
# Detector.I2: N2 15cm
# Element.edge: K
# Element.symbol: Cr
# Mono.d_spacing: 3.13550
# Mono.name: Si(111)
# Mono.notes: unfocused, detuned 75%, clockwise at E=5990eV
# Sample.formula: Cr2S3
# Sample.name: Cr2S3
# Sample.prep: powder on tape (4 layers)
# Sample.reference: Cr foil
# Sample.temperature: 100K
# Scan.start_time: 1997-04-18 17:59:32
# ///
#    Note: mono d_spacing is nominal!
#     exafs to K16
#     396  E XMU XMUR I0
#-------------
#   energy   i0   itrans  irefer
    5759.99  221269  9149.7  1169.3
    5780.01  221035  9519.7  1231.3
    5799.97  220550  9892.7  1295.3
    5820  220021  10267.7  1362.3
    5839.97  219713  10677.7  1434.3
    5860.02  219097  11077.7  1507.3
    5879.99  218500  11482.7  1580.3
    5899.97  217463  11871.7  1654.3
    5920.02  217117  12309.7  1735.3
    5939.99  216488  12735.7  1815.3
    5959.97  216027  13164.7  1897.3
    5970.49  215488  13361.7  1935.3
    5971.53  214143  13300.7  1928.3
    5972.49  211674  13170.7  1907.3
    5973.53  214283  13362.7  1936.3
    5974.5  215666  13464.7  1949.3
    5975.46  215345  13461.7  1949.3
    5976.51  215586  13496.7  1957.3
    5977.47  215457  13503.7  1960.3
    5978.52  215713  13548.7  1967.3
    5979.48  215614  13557.7  1968.3
    5980.53  215522  13574.7  1971.3
    5981.49  215530  13589.7  1972.3
    5982.46  215562  13610.7  1974.3
    5983.51  215753  13634.7  1980.3
    5984.48  215694  13644.7  1980.3
    5985.52  214754  13600.7  1970.3
    5986.49  204481  12955.7  1873.3
    5987.46  186146  11797.7  1704.3
    5988.51  203778  12921.7  1860.3
    5989.48  210537  13317.7  1891.3
    5990.53  212778  13326.7  1808.3
    5991.5  213236  13073.7  1685.3
    5992.47  213461  12829.7  1600.3
    5993.52  213660  12735.7  1542.3
    5994.49  213855  12765.7  1514.3
    5995.47  213587  12648.7  1483.3
    5996.51  213619  12028.7  1406.3
    5997.49  213602  10604.7  1240.3
    5998.54  213745  9044.7  1039.3
    5999.51  213512  8134.7   903.301
    6000.49  213105  7698.7   823.3
    6001.46  210565  7733.7   795.3
    6002.51  210947  8179.7   814.3
    6003.49  213437  8619.7   836.301
    6004.47  213394  8693.7   828.3
    6005.52  213570  8463.7   791.3
    6006.5  213259  8166.7   750.3
    6007.47  213184  7949.7   716.301
    6008.53  213210  7770.7   687.3
    6009.5  213292  7655.7   663.3
    6010.94  213493  7480.46   635.064
    6012.82  213265  7278.51   637.181
    6014.78  213526  7355.62   675.415
    6016.81  213787  7487.78   693.765
    6018.93  214106  7483   679.233
    6021.12  214072  7489.28   669.818
    6023.39  214606  7561.6   682.518
    6025.73  214918  7714.98   700.335
    6028.16  215468  7980.41   714.27
    6030.58  215830  8186.91   722.321
    6033.16  216458  8485.45   741.49
    6035.82  217282  8862.05   775.774
    6038.56  217751  9043.7   786.176
    6041.37  218739  9071.41   783.695
    6044.26  219505  9021.17   782.331
    6047.24  220570  9018.99   790.083
    6050.29  221808  8938.86   791.952
    6053.42  222890  8862.78   804.937
    6056.56  224168  8839.76   820.04
    6059.85  225493  8778.79   828.26
    6063.22  226172  8731.88   826.597
    6066.68  227346  8783.02   823.05
    6070.13  229142  8934.22   818.621
    6073.75  230614  9009.48   810.307
    6077.37  232149  9243.78   844.111
    6081.15  234044  9720.14   915.031
    6084.93  235799  10158.5   982.068
    6088.8  237423  10498  1015.22
    6092.83  239277  10763.5  1003.49
    6096.86  241161  10911.1   972.882
    6100.98  243196  11004.8   957.387
    6105.18  245455  11098.4   984.008
    6109.46  247676  11156.2  1036.75
    6113.83  250203  11095  1070.6
    6118.28  252373  11072.8  1084.57
    6122.74  254762  11174.7  1086.66
    6127.36  257175  11427.7  1113.87
    6131.99  259805  11779.7  1165.19
    6136.79  262458  12090.8  1206.63
    6141.59  265248  12412.9  1234.18
    6146.48  267868  12763.1  1264.86
    6151.46  270684  13085.3  1281.65
    6156.53  273532  13372.6  1304.55
    6161.6  276518  13652.9  1312.58
    6166.84  279400  13940.3  1320.72
    6172.1  282607  14260.8  1372.97
    6177.52  285454  14724.3  1455.35
    6182.95  288691  15110.8  1523.84
    6188.47  291930  15277.4  1554.45
    6194.08  294961  15409.1  1576.17
    6199.7  298432  15626.8  1611.01
    6205.5  301696  15910.6  1645.97
    6211.3  305158  16247.4  1702.04
    6217.2  308639  16623.3  1755.23
    6223.19  312373  17069.3  1794.55
    6229.2  315972  17562.2  1826.97
    6235.38  317610  17934.3  1840.51
    6241.56  314527  18015.4  1835.17
    6247.85  326093  18919.5  1930.95
    6254.23  330241  19477.8  2033.84
    6260.71  334054  20015  2143.85
    6267.2  337813  20478.3  2208.97
    6273.79  341646  20863.7  2255.22
    6280.48  345602  21168.1  2304.58
    6287.26  349496  21515.6  2349.05
    6294.06  353391  22003.1  2409.65
    6300.95  357671  22547.8  2492.36
    6307.95  361470  23026.4  2558.18
    6315.05  366053  23629.1  2630.13
    6322.16  369901  24216.8  2688.19
    6329.38  374103  24836.7  2750.37
    6336.69  378360  25496.5  2825.66
    6344.11  382936  26130.4  2915.07
    6351.55  387156  26691.4  3002.6
    6359.09  391731  27328.4  3103.24
    6366.65  395539  28013.5  3220.01
    6374.31  400280  28788.6  3332.88
    6382.07  404801  29499.8  3423.88
    6389.95  409053  30147.1  3516.99
    6397.84  413437  30764.4  3609.22
    6405.84  417936  31421.7  3697.57
    6413.95  422543  32092.1  3790.03
    6422.08  426935  32803.6  3898.61
    6430.32  431581  33590.1  4005.31
    6438.58  435974  34461.7  4114.12
    6446.95  440803  35356.3  4236.05
    6455.43  445412  36237  4381.09
    6463.93  449791  37151.7  4525.26
    6472.55  454351  38049.5  4657.54
    6481.28  459272  39007.3  4801.93
    6490.03  463486  39904.2  4938.45
    6498.9  468279  40828.2  5074.08
    6507.79  472614  41679.2  5206.83
    6516.8  477397  42621.2  5357.69
    6525.92  481663  43552.3  5511.67
    6535.07  486322  44547.5  5665.77
    6544.25  490267  45511.8  5814.98
    6553.54  493880  46462  5955.32
    6562.95  498359  47552.4  6125.77
    6572.4  502551  48663.8  6300.33
    6581.96  507182  49832.2  6499.01
    6591.55  511278  50900.7  6675.81
    6601.26  516143  52059.2  6861.72
    6611.09  520306  53198.9  7046.76
    6620.95  524947  54412.5  7240.91
    6630.85  529547  55633.2  7437.18
    6640.87  533320  56778  7634.57
    6650.92  537525  57965.8  7842.06
    6661.1  542764  59318.7  8069.68
    6671.31  546270  60463.6  8269.4
    6681.64  550492  61711.6  8485.26
    6692.01  553305  62848.6  8678.22
    6702.51  530963  61149.7  8484.31
    6713.04  570097  66503.9  9265.51
    6723.7  570691  67475.1  9447.83
    6734.4  572282  68658.3  9656.26
    6745.14  577544  70269.7  9940.82
    6756  574222  70864  10077.5
    6766.91  586971  73431.4  10504.3
    6777.94  592519  75179.9  10809.2
    6789.02  595199  76529.4  11062.2
    6800.23  592533  77233  11233.3
    6811.48  613490  81070.6  11849.6
    6822.77  609936  81697.4  12000
    6834.19  612214  83152.1  12273.4
    6845.66  615452  84745.8  12571
    6857.16  618646  86369.8  12880.8
    6868.81  622306  88122.6  13212.6
    6880.5  625532  89836.6  13537.5
    6892.33  628537  91556.6  13871.6
    6904.2  631454  93251.7  14208.8
    6916.11  634609  95047.8  14564.1
    6928.18  637136  96770  14908.5
    6940.28  640486  98644.3  15281.1
    6952.43  643754  100529  15652.7
    6964.62  646678  102348  16014.5
    6976.96  649214  104192  16390.4
    6989.35  652348  106131  16782.4
    7001.88  654995  108023  17179.5
    7014.47  657472  109890  17561.7
    7027.1  659738  111767  17947.1
    7039.77  661836  113614  18333.6
    7052.6  664548  115648  18756.2
    7065.48  667107  117656  19182.8
    7078.41  669341  119669  19611.7
    7091.39  670097  121418  20004.6
    7104.53  671984  123383  20440.7
    7111.06  672815  124356  20647.5