Folder: XASDataLibrary/data/Cr (part 15)

File: na2cro4_rt_003.xdi
# XDI/1.0
# Column.1: energy eV
# Column.2: i0
# Column.3: itrans
# Column.4: irefer
# Beamline.name: SSRL 2-3
# Beamline.notes: vert slits = 0.6mm
# Detector.I0: N2 15cm
# Detector.I1: N2 30cm
# Detector.I2: N2 15cm
# Element.edge: K
# Element.symbol: Cr
# Mono.d_spacing: 3.13550
# Mono.name: Si(111)
# Mono.notes: unfocused, detuned 75%, clockwise at E=5990eV
# Sample.formula: Na2CrO4
# Sample.name: Na2CrO4
# Sample.prep: powder on tape (4 layers)
# Sample.reference: Cr foil
# Sample.temperature: room temp
# Scan.start_time: 1997-04-17 23:39:33
# ///
#    Note: mono d_spacing is nominal!
#     exafs to K16
#     396  E XMU XMUR I0
#-------------
#   energy   i0   itrans  irefer
    5759.99  25043.9  18259.5  2316.7
    5780.01  25013.9  18894.5  2428.7
    5799.97  24936.9  19511.5  2539.7
    5820  24892.9  20175.5  2657.7
    5839.97  24800.9  20799.5  2773.7
    5860.02  24720.9  21465.5  2899.7
    5879.99  24660.9  22135.5  3030.7
    5899.97  24587.9  22827.5  3157.7
    5920.02  24498.9  23488.5  3289.7
    5939.99  24407.9  24155.5  3419.7
    5959.97  24307.9  24818.5  3548.7
    5970.49  24223.9  25121.5  3610.7
    5971.53  24081.9  25003.5  3599.7
    5972.49  23868.9  24825.5  3576.7
    5973.53  24149.9  25156.5  3621.7
    5974.5  24255.9  25303.5  3644.7
    5975.46  24276.9  25357.5  3653.7
    5976.51  24249.9  25359.5  3658.7
    5977.47  24270.9  25418.5  3667.7
    5978.52  24255.9  25443.5  3671.7
    5979.48  24283.9  25503.5  3682.7
    5980.53  24257.9  25506.5  3682.7
    5981.49  24268.9  25548.5  3690.7
    5982.46  24270.9  25586.5  3696.7
    5983.51  24293.9  25648.5  3702.7
    5984.48  24264.9  25643.5  3700.7
    5985.52  24086.9  25487.5  3676.7
    5986.49  23006.9  24361.5  3509.7
    5987.46  21005.9  22261.5  3205.7
    5988.51  22960.9  24363.5  3490.7
    5989.48  23639.9  25084.5  3544.7
    5990.53  23877.9  25273.5  3402.7
    5991.5  23966.9  25229.5  3236.7
    5992.47  23975.9  24899.5  3090.7
    5993.52  23997.9  23626.5  2850.7
    5994.49  23995.9  20337.5  2404.7
    5995.47  24009.9  21422.5  2501.7
    5996.51  23999.9  24321.5  2831.7
    5997.49  23995.9  24911.5  2897.7
    5998.54  23993.9  24978.5  2854.7
    5999.51  23983.9  24778.5  2733.7
    6000.49  23911.9  24361.5  2581.7
    6001.46  23687.9  23766.5  2428.7
    6002.51  23702.9  23469.5  2322.7
    6003.49  23950.9  23372.5  2259.7
    6004.47  23981.9  22936.5  2174.7
    6005.52  23971.9  22337.5  2076.7
    6006.5  23957.9  21656.5  1982.7
    6007.47  23953.9  20893.5  1877.7
    6008.53  23961.9  20059.5  1765.7
    6009.5  23953.9  19422.5  1679.7
    6010.94  23972.7  18744.3  1588.47
    6012.82  23979.8  18311.3  1599.58
    6014.78  23999  18264.4  1670.81
    6016.81  24021.3  18287.5  1686.16
    6018.93  24032.7  18209.7  1643.62
    6021.12  24079.2  18190.9  1617.2
    6023.39  24123.8  18205.1  1634.9
    6025.73  24184.6  18194.4  1644.71
    6028.16  24237.4  18273.8  1628.63
    6030.58  24310.3  18481.1  1624.68
    6033.16  24380.4  18680.6  1628.84
    6035.82  24470.5  18820  1637.11
    6038.56  24561.8  18921.5  1637.5
    6041.37  24611.1  19082.1  1641.01
    6044.26  24765.6  19506.6  1689.63
    6047.24  24843.1  19918.3  1739.37
    6050.29  24978.8  20211.9  1784.22
    6053.42  25105.5  20543.6  1859.19
    6056.56  25216.4  20909.4  1932.28
    6059.85  25363.4  21255.2  1996.48
    6063.22  25436.4  21511  2029.79
    6066.68  25581.6  21794.9  2032.23
    6070.13  25755.9  22068.8  2011.78
    6073.75  25922.3  22309.8  1999.44
    6077.37  26106.8  22560.8  2060.22
    6081.15  26308.4  22815.8  2148.12
    6084.93  26466.1  23055.9  2226.13
    6088.8  26708.9  23403  2261.26
    6092.83  26933.8  23767.2  2207.5
    6096.86  27131.8  24107.4  2142.86
    6100.98  27361.9  24432.7  2115.34
    6105.18  27615.1  24749  2186.93
    6109.46  27861.4  25049.3  2315.64
    6113.83  28095.8  25346.7  2439.46
    6118.28  28368.4  25712.1  2506.4
    6122.74  28641  26096.6  2529.46
    6127.36  28921.7  26512.1  2576.63
    6131.99  29178.6  26957.6  2655.92
    6136.79  29461.5  27461.2  2729.31
    6141.59  29735.6  27976.8  2775.83
    6146.48  30058.7  28554.5  2817.47
    6151.46  30355  29116.2  2842.22
    6156.53  30685.3  29723.9  2890.09
    6161.6  30983.8  30300.7  2903.07
    6166.84  31320.3  30947.6  2920.17
    6172.1  31640  31580.5  3031.38
    6177.52  31984.8  32244.4  3177.71
    6182.95  32311.7  32885.3  3311.15
    6188.47  32593.6  33515.3  3402.71
    6194.08  32966.7  34201.4  3492.39
    6199.7  33324.9  34875.5  3587.19
    6205.5  33683.2  35546.6  3679.09
    6211.3  34073.6  36243.8  3797.12
    6217.2  34438.1  36918  3900.26
    6223.19  34801.7  37602.2  3950.52
    6229.2  35220.4  38355.5  3987.89
    6235.38  35388.2  38847.9  3986.38
    6241.56  35096.1  38854.3  3947.98
    6247.85  36344.1  40574.7  4135.7
    6254.23  36779.2  41432.1  4317.54
    6260.71  37195.5  42311.6  4525.49
    6267.2  37615.8  43214.2  4651.56
    6273.79  38048.2  44136.8  4771.74
    6280.48  38481.8  45086.4  4904.04
    6287.26  38911.4  46077.1  5027.45
    6294.06  39357.1  47074.8  5149.98
    6300.95  39782  48082.5  5307.63
    6307.95  40217.9  49123.3  5456.39
    6315.05  40682  50223.2  5588.27
    6322.16  41129.1  51299.1  5685.26
    6329.38  41584.4  52401  5795.38
    6336.69  42047.8  53534  5928.6
    6344.11  42534.2  54699  6088.94
    6351.55  42975.8  55804  6269.4
    6359.09  43472.5  57006.1  6458.97
    6366.65  43921.3  58185.2  6671.66
    6374.31  44417.1  59416.4  6869.47
    6382.07  44867.1  60587.6  7026.39
    6389.95  45353.2  61867.9  7204.43
    6397.84  45850.4  63202.2  7392.58
    6405.84  46275.7  64430.5  7563.85
    6413.95  46808.1  65853.9  7765.23
    6422.08  47257.6  67186.3  7973.73
    6430.32  47745.2  68622.8  8171.35
    6438.58  48191.9  70042.3  8349.09
    6446.95  48673.7  71519.8  8555.93
    6455.43  49169.7  73063.4  8813.9
    6463.93  49654.7  74624  9066.98
    6472.55  50121.8  76175.7  9301.17
    6481.28  50591  77768.4  9552.48
    6490.03  51091.4  79429.2  9814.91
    6498.9  51602.8  81167  10061.5
    6507.79  52098.4  82862.8  10322.1
    6516.8  52542  84471.7  10595.9
    6525.92  53012.8  86198.6  10878.8
    6535.07  53484.6  87927.6  11160.8
    6544.25  53911.6  89633.6  11423.9
    6553.54  54312.6  91279.7  11669.1
    6562.95  54755.8  93022.7  11943.5
    6572.4  55266.1  94933.9  12259
    6581.96  55737.4  96807.1  12572.6
    6591.55  56204.9  98712.3  12893.3
    6601.26  56691.5  100681  13224.1
    6611.09  57142.2  102614  13544
    6620.95  57613  104633  13874.1
    6630.85  58039.8  106594  14207.2
    6640.87  58505.8  108643  14571.5
    6650.92  58863.9  110515  14902.9
    6661.1  59319.1  112637  15274.4
    6671.31  59697.4  114612  15620
    6681.64  60100.8  116700  15981.8
    6692.01  60306.4  118390  16291.7
    6702.51  57406  114008  15758.6
    6713.04  62109.7  124721  17322.7
    6723.7  62125.5  126157  17612.9
    6734.4  62201.4  127714  17923.3
    6745.14  62713.5  130250  18378.7
    6756  62290.6  130893  18572.2
    6766.91  63647.9  135230  19284.9
    6777.94  64201.2  137978  19786.7
    6789.02  64256.6  139689  20135.6
    6800.23  63957.2  140618  20381.6
    6811.48  66506.8  147907  21546.8
    6822.77  65971.6  148435  21735
    6834.19  66186.5  150645  22176.4
    6845.66  66505.4  153127  22652.8
    6857.16  66792.5  155580  23131.5
    6868.81  67055.7  158036  23619.2
    6880.5  67380.9  160597  24133
    6892.33  67657.3  163178  24663.9
    6904.2  68001.8  165862  25199
    6916.11  68243.4  168381  25730.2
    6928.18  68261.1  170428  26196.5
    6940.28  68517.9  173024  26748.9
    6952.43  68758.8  175633  27294.4
    6964.62  69032.8  178330  27861
    6976.96  69291.9  181048  28420.8
    6989.35  69487.1  183631  28970.7
    7001.88  69658.4  186187  29531.7
    7014.47  69900.8  188970  30133.8
    7027.1  70087.3  191643  30719
    7039.77  70285  194326  31304.3
    7052.6  70460.7  196991  31890.8
    7065.48  70684.5  199767  32512.3
    7078.41  70894.5  202576  33152
    7091.39  71055.5  205296  33762.8
    7104.53  71095.6  207680  34337.7
    7111.06  71179.5  209122  34666.5