Folder: XASDataLibrary/data/Cr (part 8)

File: cro2_15K_003.xdi
# XDI/1.0
# Column.1: energy eV
# Column.2: i0
# Column.3: itrans
# Column.4: irefer
# Beamline.name: SSRL 2-3
# Beamline.notes: vert slits = 0.6mm
# Detector.I0: N2 15cm
# Detector.I1: N2 30cm
# Detector.I2: N2 15cm
# Element.edge: K
# Element.symbol: Cr
# Mono.d_spacing: 3.13550
# Mono.name: Si(111)
# Mono.notes: unfocused, detuned 75%, clockwise at E=5990eV
# Sample.formula: CrO2
# Sample.name: CrO2
# Sample.prep: powder on tape (4 layers)
# Sample.reference: Cr foil
# Sample.temperature: 15K
# Scan.start_time: 1997-04-18 13:47:10
# ///
#    Note: mono d_spacing is nominal!
#     exafs to K16
#     396  E XMU XMUR I0
#-------------
#   energy   i0   itrans  irefer
    5759.99  146751  9436.7  1196.3
    5780.01  145525  9707.7  1245.3
    5799.97  144101  9972.7  1295.3
    5820  142915  10252.7  1348.3
    5839.97  141703  10532.7  1404.3
    5860.02  140585  10827.7  1463.3
    5879.99  139050  11087.7  1514.3
    5899.97  137763  11371.7  1573.3
    5920.02  136512  11654.7  1631.3
    5939.99  135028  11910.7  1683.3
    5959.97  133819  12188.7  1742.3
    5970.49  130991  12131.7  1744.3
    5971.53  130986  12153.7  1748.3
    5972.49  129888  12071.7  1735.3
    5973.53  129541  12045.7  1732.3
    5974.5  131373  12241.7  1762.3
    5975.46  131406  12256.7  1764.3
    5976.51  131389  12276.7  1770.3
    5977.47  131574  12308.7  1774.3
    5978.52  131400  12314.7  1776.3
    5979.48  131620  12352.7  1782.3
    5980.53  131456  12352.7  1782.3
    5981.49  131452  12371.7  1785.3
    5982.46  131593  12403.7  1790.3
    5983.51  131331  12396.7  1789.3
    5984.48  131485  12426.7  1793.3
    5985.52  131672  12471.7  1799.3
    5986.49  130019  12340.7  1779.3
    5987.46  122032  11606.7  1671.3
    5988.51  118405  11247.7  1617.3
    5989.48  125450  11944.7  1707.3
    5990.53  127219  12124.7  1695.3
    5991.5  128014  12205.7  1622.3
    5992.47  128262  12207.7  1553.3
    5993.52  128260  12201.7  1500.3
    5994.49  128364  12208.7  1465.3
    5995.47  128294  12196.7  1435.3
    5996.51  128139  12193.7  1422.3
    5997.49  128205  12227.7  1422.3
    5998.54  128144  12243.7  1418.3
    5999.51  127936  12220.7  1383.3
    6000.49  127830  12174.7  1326.3
    6001.46  127299  12028.7  1260.3
    6002.51  125888  11737.7  1183.3
    6003.49  127552  11732.7  1150.3
    6004.47  128156  11611.7  1114.3
    6005.52  128027  11452.7  1076.3
    6006.5  127863  11307.7  1045.3
    6007.47  127639  11118.7  1009.3
    6008.53  127637  10888.7   969.3
    6009.5  127544  10635.7   930.3
    6010.94  127345  10276.5   875.064
    6012.82  127337  10167.5   870.18
    6014.78  127219  10239.6   921.415
    6016.81  127449  10444.8   963.765
    6018.93  127392  10570   962.232
    6021.12  127463  10712.3   954.817
    6023.39  127567  10854.6   968.518
    6025.73  127797  10870   983.336
    6028.16  128233  10867.4   972.27
    6030.58  128429  10945.9   964.322
    6033.16  128984  11210.4   978.49
    6035.82  129180  11441   995.774
    6038.56  129653  11684.7  1012.18
    6041.37  129912  11866.4  1017.7
    6044.26  130279  11955.2  1031.33
    6047.24  130804  11997  1043.08
    6050.29  131275  12089.9  1060.95
    6053.42  132058  12233.8  1096.94
    6056.56  132485  12285.8  1128.04
    6059.85  133156  12310.8  1148.26
    6063.22  133776  12352.9  1162.6
    6066.68  134131  12391  1155.05
    6070.13  134931  12457.2  1137.62
    6073.75  135612  12542.5  1121.31
    6077.37  136426  12735.8  1154.11
    6081.15  137210  12940.1  1206.03
    6084.93  138063  13125.6  1258.07
    6088.8  139102  13311  1286.22
    6092.83  139945  13474.5  1258.49
    6096.86  140764  13647.1  1218.88
    6100.98  141895  13874.7  1200.39
    6105.18  142740  14084.4  1233.01
    6109.46  143820  14276.2  1305.75
    6113.83  145079  14451  1378.6
    6118.28  145990  14657.8  1425.57
    6122.74  147220  14953.7  1448.66
    6127.36  148570  15269.7  1477.87
    6131.99  149294  15493.7  1520.19
    6136.79  150713  15742.8  1558.63
    6141.59  151630  15899.9  1574.18
    6146.48  152786  16107.1  1587.86
    6151.46  154262  16334.3  1590.65
    6156.53  155510  16524.6  1603.55
    6161.6  156654  16765.9  1605.58
    6166.84  158020  17055.3  1603.72
    6172.1  159291  17326.8  1649.98
    6177.52  160666  17644.3  1730.35
    6182.95  161020  17861.8  1791.84
    6188.47  163532  18330.4  1857.45
    6194.08  164618  18626.1  1896.17
    6199.7  165410  18872.8  1937.01
    6205.5  167250  19221.6  1985.97
    6211.3  167610  19416.4  2029.04
    6217.2  169126  19789.3  2088.24
    6223.19  170455  20129.2  2115.54
    6229.2  172302  20543.2  2138.97
    6235.38  174166  20962.3  2153.51
    6241.56  174067  21107.4  2143.17
    6247.85  176915  21645.5  2196.95
    6254.23  179154  22137.7  2292.84
    6260.71  179155  22302  2369.85
    6267.2  181732  22808.3  2449.97
    6273.79  183525  23248.7  2501.22
    6280.48  185292  23658.1  2562.58
    6287.26  186883  24095.6  2620.05
    6294.06  186685  24304.2  2649.65
    6300.95  188747  24803.7  2727.35
    6307.95  190280  25237.4  2794.18
    6315.05  192104  25731.1  2856.13
    6322.16  193403  26140.9  2894.19
    6329.38  195049  26625.7  2941.37
    6336.69  196456  27088.5  2991.66
    6344.11  198019  27552.4  3058.07
    6351.55  199449  28025.4  3137.6
    6359.09  201142  28569.4  3227.24
    6366.65  202563  29076.5  3321
    6374.31  204576  29653.6  3418.88
    6382.07  206260  30208.8  3495.88
    6389.95  207984  30758.1  3572.99
    6397.84  207460  30976.4  3615.22
    6405.84  208989  31519.7  3685.57
    6413.95  211272  32196.1  3780.03
    6422.08  212840  32751.6  3870.61
    6430.32  214488  33344.1  3958.31
    6438.58  213820  33593.7  3991.12
    6446.95  215451  34221.3  4087.05
    6455.43  216729  34822  4191.1
    6463.93  218244  35441.7  4295.26
    6472.55  219306  35992.5  4385.54
    6481.28  220402  36561.3  4479.93
    6490.03  222068  37224.3  4589.45
    6498.9  223313  37822.2  4682.08
    6507.79  224876  38511.2  4787.83
    6516.8  225172  38979.3  4881.69
    6525.92  228096  39942.4  5034.67
    6535.07  228981  40544.5  5136.77
    6544.25  230377  41225.8  5242.99
    6553.54  231017  41812  5334.32
    6562.95  232018  42470.4  5444.76
    6572.4  232166  42955.8  5537.33
    6581.96  233149  43584.2  5649.01
    6591.55  232193  43852.7  5719.81
    6601.26  233488  44573.2  5848.73
    6611.09  234448  45257.8  5969.76
    6620.95  235264  45933.5  6087.91
    6630.85  236038  46598.2  6208.18
    6640.87  236838  47273  6334.56
    6650.92  237798  47995.8  6468.06
    6661.1  238712  48697.7  6595.68
    6671.31  239181  49313.6  6708.41
    6681.64  239365  49880.6  6819.26
    6692.01  239269  50413.6  6920.23
    6702.51  229969  49045.7  6776.31
    6713.04  247132  53234.9  7386.51
    6723.7  245725  53503.1  7462.83
    6734.4  243739  53673.3  7523.26
    6745.14  245214  54627.7  7702.82
    6756  238863  53765  7625.48
    6766.91  247698  56399.4  8041.27
    6777.94  248052  57108.9  8184.17
    6789.02  246623  57413.4  8280.19
    6800.23  244156  57485  8336.32
    6811.48  257807  61388.6  8946.57
    6822.77  251698  60629.3  8881.95
    6834.19  250510  61030.1  8986.43
    6845.66  250409  61687.9  9133.04
    6857.16  250599  62441.7  9285.75
    6868.81  250674  63170.7  9443.59
    6880.5  249816  63668.6  9565.54
    6892.33  249916  64419.7  9727.61
    6904.2  250373  65276.7  9911.8
    6916.11  250526  66049.8  10087.1
    6928.18  242935  64766  9940.52
    6940.28  242979  65498.2  10118.1
    6952.43  242961  66244.5  10275.7
    6964.62  243077  67017.9  10455.5
    6976.96  243137  67776.3  10631.4
    6989.35  243236  68573.8  10805.4
    7001.88  243645  69447.2  11002.5
    7014.47  243374  70145.8  11169.7
    7027.1  243477  70940.4  11352.1
    7039.77  243553  71737.1  11536.6
    7052.6  243595  72542.8  11728.1
    7065.48  243634  73350.6  11918.9
    7078.41  243587  74140.5  12112.7
    7091.39  242888  74729.3  12258.6
    7104.53  242726  75501.3  12451.7
    7111.06  242868  75957.5  12552.5

File: cro2_rt_001.xdi
# XDI/1.0
# Column.1: energy eV
# Column.2: i0
# Column.3: itrans
# Column.4: irefer
# Beamline.name: SSRL 2-3
# Beamline.notes: vert slits = 0.6mm
# Detector.I0: N2 15cm
# Detector.I1: N2 30cm
# Detector.I2: N2 15cm
# Element.edge: K
# Element.symbol: Cr
# Mono.d_spacing: 3.13550
# Mono.name: Si(111)
# Mono.notes: unfocused, detuned 75%, clockwise at E=5990eV
# Sample.formula: CrO2
# Sample.name: CrO2
# Sample.prep: powder on tape (4 layers)
# Sample.reference: Cr foil
# Sample.temperature: room temp
# Scan.start_time: 1997-04-17 19:39:50
# ///
#    Note: mono d_spacing is nominal!
#     exafs to K16
#     396  E XMU XMUR I0
#-------------
#   energy   i0   itrans  irefer
    5759.99  25548.9  22358.5  2841.7
    5780.01  25476.9  23058.5  2966.7
    5799.97  25374.9  23741.5  3093.7
    5820  25274.9  24444.5  3221.7
    5839.97  25190.9  25158.5  3357.7
    5860.02  25101.9  25899.5  3498.7
    5879.99  24990.9  26634.5  3638.7
    5899.97  24859.9  27329.5  3780.7
    5920.02  24751.9  28074.5  3928.7
    5939.99  24639.9  28804.5  4076.7
    5959.97  24550.9  29560.5  4230.7
    5970.49  24436.9  29871.5  4295.7
    5971.53  24342.9  29801.5  4288.7
    5972.49  24090.9  29535.5  4251.7
    5973.53  24259.9  29782.5  4285.7
    5974.5  24462.9  30071.5  4330.7
    5975.46  24471.9  30116.5  4340.7
    5976.51  24473.9  30156.5  4345.7
    5977.47  24480.9  30215.5  4354.7
    5978.52  24444.9  30217.5  4356.7
    5979.48  24472.9  30285.5  4368.7
    5980.53  24472.9  30330.5  4374.7
    5981.49  24485.9  30385.5  4384.7
    5982.46  24495.9  30437.5  4394.7
    5983.51  24519.9  30504.5  4401.7
    5984.48  24497.9  30521.5  4402.7
    5985.52  24436.9  30492.5  4400.7
    5986.49  23751.9  29660.5  4276.7
    5987.46  21385.9  26739.5  3847.7
    5988.51  22748.9  28492.5  4086.7
    5989.48  23720.9  29734.5  4224.7
    5990.53  24050.9  30177.5  4140.7
    5991.5  24157.9  30287.5  3937.7
    5992.47  24186.9  30266.5  3792.7
    5993.52  24209.9  30300.5  3681.7
    5994.49  24216.9  30273.5  3596.7
    5995.47  24228.9  30291.5  3545.7
    5996.51  24204.9  30314.5  3529.7
    5997.49  24213.9  30384.5  3537.7
    5998.54  24212.9  30405.5  3501.7
    5999.51  24189.9  30337.5  3389.7
    6000.49  24153.9  30148.5  3239.7
    6001.46  23948.9  29601.5  3060.7
    6002.51  23827.9  29051.5  2901.7
    6003.49  24093.9  28965.5  2823.7
    6004.47  24174.9  28657.5  2735.7
    6005.52  24167.9  28309.5  2648.7
    6006.5  24160.9  27963.5  2571.7
    6007.47  24148.9  27487.5  2484.7
    6008.53  24156.9  26914.5  2385.7
    6009.5  24138.9  26267.5  2287.7
    6010.94  24145.7  25617.3  2175.46
    6012.82  24130.8  25453.3  2206.58
    6014.78  24148  25738.4  2340.81
    6016.81  24166.3  26209.5  2423.16
    6018.93  24203.7  26524.7  2408.62
    6021.12  24217.2  26900.9  2394.2
    6023.39  24265.8  27193.1  2434.9
    6025.73  24309.6  27203.4  2459.71
    6028.16  24377.4  27200.8  2426.64
    6030.58  24449.3  27519.1  2419.68
    6033.16  24515.4  28117.6  2453.84
    6035.82  24596.5  28701  2502.11
    6038.56  24667.8  29241.5  2536.5
    6041.37  24777.1  29694.1  2557.01
    6044.26  24870.6  29897.6  2588.63
    6047.24  25000.1  30045.3  2623.37
    6050.29  25114.8  30311.9  2676.22
    6053.42  25247.5  30608.6  2763.19
    6056.56  25371.4  30758.4  2835.28
    6059.85  25520.4  30846.2  2889.48
    6063.22  25591.4  30897  2917.79
    6066.68  25756.6  31122.9  2907.23
    6070.13  25874.9  31253.8  2854.78
    6073.75  26113.3  31639.8  2835.44
    6077.37  26269.8  32099.8  2923.22
    6081.15  26421.4  32579.8  3057.12
    6084.93  26651.1  33082.9  3191.13
    6088.8  26843.9  33521  3244.26
    6092.83  27060.8  33986.2  3171.5
    6096.86  27289.8  34501.4  3076.87
    6100.98  27495.9  35039.7  3042.34
    6105.18  27653.1  35530  3131.93
    6109.46  27879.4  36006.3  3319.64
    6113.83  28138.8  36487.7  3501.46
    6118.28  28367.4  37072.1  3610.4
    6122.74  28636  37820.6  3670.46
    6127.36  28907.7  38601.1  3749.63
    6131.99  29197.6  39295.6  3865.92
    6136.79  29472.5  39877.2  3959.32
    6141.59  29737.6  40393.8  4003.83
    6146.48  30050.7  41015.5  4049.47
    6151.46  30334  41564.2  4057.22
    6156.53  30669.3  42202  4102.09
    6161.6  30971.8  42909.7  4113.07
    6166.84  31287.3  43662.6  4114.17
    6172.1  31607  44411.5  4249.38
    6177.52  31935.8  45286.4  4457.71
    6182.95  32269.7  46188.3  4641.16
    6188.47  32572.6  47064.3  4776.71
    6194.08  32898.7  47943.4  4892.39
    6199.7  33270.9  48841.5  5024.19
    6205.5  33611.2  49681.6  5140.1
    6211.3  33971.6  50615.8  5306.12
    6217.2  34347.1  51635  5456.26
    6223.19  34728.7  52640.2  5538.52
    6229.2  35097.4  53677.5  5584.89
    6235.38  35365.2  54495.9  5597.38
    6241.56  35022.1  54372.3  5531.98
    6247.85  36159.1  56632.7  5770.7
    6254.23  36579.2  57784.1  6020.54
    6260.71  36980.5  58841.6  6289.49
    6267.2  37392.8  59979.2  6463.56
    6273.79  37828.2  61175.8  6614.74
    6280.48  38244.8  62320.4  6781.04
    6287.26  38633.4  63509.1  6930.45
    6294.06  39090.1  64819.8  7098.98
    6300.95  39438  65957.5  7287.63
    6307.95  39880.9  67289.3  7477.39
    6315.05  40327  68611.2  7639.27
    6322.16  40753.1  69946.1  7761.27
    6329.38  41191.4  71339  7896.38
    6336.69  41638.8  72746.9  8062.6
    6344.11  42073.2  74171  8265.94
    6351.55  42538.8  75689  8507.4
    6359.09  42949.5  77165.1  8747.97
    6366.65  43437.3  78756.2  9028.66
    6374.31  43903.1  80330.4  9290.47
    6382.07  44326.1  81870.6  9499.39
    6389.95  44740.2  83372.9  9712.42
    6397.84  45252.4  85080.2  9962.58
    6405.84  45690.7  86710.5  10181.9
    6413.95  46139.1  88398.9  10425.2
    6422.08  46609.6  90115.3  10692.7
    6430.32  47054.2  91841.8  10938.4
    6438.58  47476.9  93568.3  11154.1
    6446.95  47936.7  95447.8  11428.9
    6455.43  48390.7  97319.4  11746.9
    6463.93  48833.7  99186  12065
    6472.55  49272.8  101051  12352.2
    6481.28  49702  102940  12659.5
    6490.03  50174.4  104915  12980.9
    6498.9  50609.8  106879  13265.5
    6507.79  51044.4  108868  13578.1
    6516.8  51434  110814  13915.9
    6525.92  51905.8  112935  14270.8
    6535.07  52347.6  115060  14613.8
    6544.25  52678.6  116955  14923.9
    6553.54  53067.6  119018  15244.2
    6562.95  53495.8  121204  15583.5
    6572.4  53970.1  123477  15967
    6581.96  54322.4  125501  16329.5
    6591.55  54795.9  127869  16733.3
    6601.26  55164.5  129992  17106.1
    6611.09  55590.2  132309  17490
    6620.95  56058  134785  17902
    6630.85  56400.8  136971  18282.2
    6640.87  56816.8  139358  18704.5
    6650.92  57155.9  141600  19109.9
    6661.1  57550.1  144019  19543.4
    6671.31  57878.4  146279  19960
    6681.64  58238.8  148614  20374.8
    6692.01  58430.4  150615  20739.6
    6702.51  55711  145036  20058.6
    6713.04  60231.7  158388  22014.7
    6723.7  60159.5  159802  22329.9
    6734.4  60124.4  161324  22655.3
    6745.14  60627.5  164383  23213.7
    6756  58895.6  161300  22908.2
    6766.91  61535.9  170277  24304.9
    6777.94  62003.2  173387  24881.7
    6789.02  61995.6  175156  25278.6
    6800.23  61600.2  175864  25514.6
    6811.48  64331.8  185542  27066.8
    6822.77  63548.6  185199  27160
    6834.19  63678.5  187506  27630.4
    6845.66  63896.4  190100  28148.9
    6857.16  64114.5  192732  28684.5
    6868.81  64192.7  195038  29180.2
    6880.5  64442.9  197764  29739
    6892.33  64532.3  200107  30254.9
    6904.2  64672.8  202732  30805
    6916.11  64828.4  205316  31367.2
    6928.18  64868.1  207543  31895.5
    6940.28  65087.9  210382  32500.9
    6952.43  65239.8  213071  33114.4
    6964.62  65405.8  215807  33722
    6976.96  65597.9  218636  34340.8
    6989.35  65798.1  221488  34974.7
    7001.88  65887.4  224054  35563.7
    7014.47  66057.8  226917  36200.8
    7027.1  66121.3  229445  36792
    7039.77  66333  232446  37464.4
    7052.6  66400.7  235052  38081.8
    7065.48  66445.5  237576  38687.3
    7078.41  66556.5  240344  39336.1
    7091.39  66568.5  242748  39937.8
    7104.53  66608.6  245312  40573.8
    7111.06  66624.5  246583  40878.5

File: cro2_rt_002.xdi
# XDI/1.0
# Column.1: energy eV
# Column.2: i0
# Column.3: itrans
# Column.4: irefer
# Beamline.name: SSRL 2-3
# Beamline.notes: vert slits = 0.6mm
# Detector.I0: N2 15cm
# Detector.I1: N2 30cm
# Detector.I2: N2 15cm
# Element.edge: K
# Element.symbol: Cr
# Mono.d_spacing: 3.13550
# Mono.name: Si(111)
# Mono.notes: unfocused, detuned 75%, clockwise at E=5990eV
# Sample.formula: CrO2
# Sample.name: CrO2
# Sample.prep: powder on tape (4 layers)
# Sample.reference: Cr foil
# Sample.temperature: room temp
# Scan.start_time: 1997-04-17 19:39:50
# ///
#    Note: mono d_spacing is nominal!
#     exafs to K16
#     396  E XMU XMUR I0
#-------------
#   energy   i0   itrans  irefer
    5759.99  25429.9  22252.5  2825.7
    5780.01  25379.9  22963.5  2951.7
    5799.97  25288.9  23664.5  3081.7
    5820  25171.9  24352.5  3213.7
    5839.97  25098.9  25075.5  3348.7
    5860.02  25012.9  25815.5  3488.7
    5879.99  24928.9  26562.5  3635.7
    5899.97  24816.9  27285.5  3780.7
    5920.02  24701.9  28013.5  3922.7
    5939.99  24588.9  28741.5  4070.7
    5959.97  24488.9  29485.5  4222.7
    5970.49  24413.9  29839.5  4294.7
    5971.53  24265.9  29703.5  4276.7
    5972.49  24047.9  29476.5  4244.7
    5973.53  24222.9  29726.5  4283.7
    5974.5  24433.9  30034.5  4328.7
    5975.46  24415.9  30055.5  4334.7
    5976.51  24437.9  30121.5  4346.7
    5977.47  24416.9  30138.5  4348.7
    5978.52  24435.9  30191.5  4359.7
    5979.48  24412.9  30208.5  4358.7
    5980.53  24422.9  30273.5  4371.7
    5981.49  24412.9  30290.5  4376.7
    5982.46  24440.9  30364.5  4389.7
    5983.51  24444.9  30414.5  4394.7
    5984.48  24461.9  30484.5  4402.7
    5985.52  24358.9  30393.5  4388.7
    5986.49  23673.9  29576.5  4267.7
    5987.46  21286.9  26624.5  3833.7
    5988.51  22744.9  28484.5  4087.7
    5989.48  23645.9  29648.5  4218.7
    5990.53  23996.9  30099.5  4128.7
    5991.5  24102.9  30211.5  3926.7
    5992.47  24126.9  30186.5  3784.7
    5993.52  24158.9  30233.5  3676.7
    5994.49  24164.9  30215.5  3593.7
    5995.47  24172.9  30225.5  3540.7
    5996.51  24161.9  30272.5  3531.7
    5997.49  24168.9  30337.5  3536.7
    5998.54  24149.9  30336.5  3496.7
    5999.51  24164.9  30313.5  3387.7
    6000.49  24095.9  30086.5  3232.7
    6001.46  23924.9  29560.5  3058.7
    6002.51  23790.9  28983.5  2898.7
    6003.49  24073.9  28923.5  2823.7
    6004.47  24104.9  28576.5  2730.7
    6005.52  24136.9  28262.5  2645.7
    6006.5  24105.9  27886.5  2569.7
    6007.47  24113.9  27435.5  2483.7
    6008.53  24091.9  26821.5  2378.7
    6009.5  24114.9  26220.5  2287.7
    6010.94  24084.7  25551.3  2174.46
    6012.82  24090.8  25415.3  2206.58
    6014.78  24097  25690.4  2341.81
    6016.81  24138.3  26189.5  2424.16
    6018.93  24131.7  26449.7  2403.62
    6021.12  24183.2  26876.9  2397.2
    6023.39  24210.8  27134.1  2433.9
    6025.73  24280.6  27173.4  2462.71
    6028.16  24322.4  27150.8  2425.63
    6030.58  24396.3  27481.1  2420.68
    6033.16  24457.4  28060.6  2451.84
    6035.82  24564.5  28670  2503.11
    6038.56  24633.8  29202.5  2539.5
    6041.37  24702.1  29617.1  2554.01
    6044.26  24835.6  29860.6  2590.63
    6047.24  24915.1  29953.3  2621.37
    6050.29  25048.8  30234.9  2678.22
    6053.42  25173.5  30527.6  2760.19
    6056.56  25312.4  30691.4  2838.28
    6059.85  25441.4  30762.2  2887.48
    6063.22  25474.4  30771  2908.8
    6066.68  25653.6  31004.9  2900.23
    6070.13  25804.9  31156.8  2850.78
    6073.75  26005.3  31516.8  2829.44
    6077.37  26195.8  32006.8  2920.22
    6081.15  26354.4  32474.8  3053.12
    6084.93  26541.1  32941.9  3184.13
    6088.8  26770.9  33428  3236.26
    6092.83  26964.8  33861.2  3161.5
    6096.86  27175.8  34360.4  3066.86
    6100.98  27418.9  34933.7  3037.34
    6105.18  27651.1  35519  3137.93
    6109.46  27867.4  35976.3  3323.64
    6113.83  28100.8  36417.7  3502.46
    6118.28  28381.4  37085.1  3617.4
    6122.74  28639  37823.6  3676.46
    6127.36  28891.7  38568.1  3751.63
    6131.99  29162.6  39246.6  3866.91
    6136.79  29437.5  39825.2  3956.32
    6141.59  29729.6  40382.8  4008.83
    6146.48  30006.7  40949.5  4046.47
    6151.46  30304  41524.2  4056.22
    6156.53  30606.3  42105.9  4096.09
    6161.6  30938.8  42852.7  4116.07
    6166.84  31249.3  43604.6  4117.17
    6172.1  31581  44386.5  4253.38
    6177.52  31923.8  45292.4  4467.71
    6182.95  32260.7  46191.3  4654.15
    6188.47  32585.6  47084.3  4792.72
    6194.08  32939.7  48003.4  4914.39
    6199.7  33292.9  48894.5  5042.18
    6205.5  33659.2  49760.6  5162.1
    6211.3  34019.6  50697.8  5319.12
    6217.2  34383.1  51683  5471.26
    6223.19  34747.7  52674.2  5548.52
    6229.2  35152.4  53744.5  5601.89
    6235.38  35409.2  54565.9  5613.38
    6241.56  35012.1  54343.3  5534.98
    6247.85  36181.1  56646.7  5782.7
    6254.23  36639.2  57850.1  6036.53
    6260.71  37068.5  58977.6  6310.48
    6267.2  37472.8  60081.2  6482.56
    6273.79  37861.2  61221.8  6626.74
    6280.48  38298.8  62393.4  6797.04
    6287.26  38684.4  63588.1  6951.45
    6294.06  39136.1  64915.8  7119.98
    6300.95  39536  66124.5  7316.63
    6307.95  39929.9  67368.3  7496.4
    6315.05  40446  68827.2  7676.27
    6322.16  40869.1  70166.1  7790.26
    6329.38  41290.4  71527  7922.37
    6336.69  41741.8  72970.9  8090.6
    6344.11  42191.2  74401  8296.94
    6351.55  42643.8  75899  8540.4
    6359.09  43079.5  77421.1  8784.98
    6366.65  43529.3  78934.2  9065.66
    6374.31  43980.1  80481.4  9318.47
    6382.07  44440.1  82079.6  9534.39
    6389.95  44855.2  83607.9  9755.43
    6397.84  45359.4  85309.2  10001.6
    6405.84  45814.7  86985.5  10224.8
    6413.95  46269.1  88643.9  10467.2
    6422.08  46709.6  90328.3  10728.7
    6430.32  47170.2  92089.8  10977.3
    6438.58  47599.9  93847.3  11196.1
    6446.95  48054.7  95691.8  11456.9
    6455.43  48486.7  97529.4  11773.9
    6463.93  48958.7  99433  12093
    6472.55  49387.8  101272  12385.2
    6481.28  49820  103151  12682.5
    6490.03  50298.4  105162  13002.9
    6498.9  50760.8  107193  13304.5
    6507.79  51179.4  109172  13610.1
    6516.8  51636  111237  13962.9
    6525.92  52064.8  113297  14323.8
    6535.07  52525.6  115449  14668.8
    6544.25  52922.6  117471  14988.9
    6553.54  53252.6  119432  15295.1
    6562.95  53712.8  121688  15656.5
    6572.4  54171.1  123934  16036
    6581.96  54590.4  126133  16406.6
    6591.55  54983.9  128273  16787.3
    6601.26  55405.5  130531  17175.1
    6611.09  55843.2  132927  17577
    6620.95  56268  135289  17981.1
    6630.85  56657.8  137596  18374.2
    6640.87  57084.8  140018  18799.5
    6650.92  57477.9  142434  19232.9
    6661.1  57839.1  144773  19662.4
    6671.31  58222.4  147182  20085
    6681.64  58540.8  149428  20489.8
    6692.01  58743.4  151462  20872.7
    6702.51  55962  145706  20174.6
    6713.04  60523.7  159184  22140.7
    6723.7  60544.5  160829  22481.9
    6734.4  60472.4  162345  22812.3
    6745.14  61022.5  165487  23378.7
    6756  59497.6  163023  23161.2
    6766.91  61947.9  171484  24490.9
    6777.94  62389.2  174498  25060.7
    6789.02  62419.6  176386  25468.6
    6800.23  62028.2  177067  25710.6
    6811.48  64749.8  186824  27259.8
    6822.77  64042.6  186631  27383
    6834.19  64189.5  189069  27885.4
    6845.66  64376.4  191538  28403.9
    6857.16  64616.5  194221  28931.5
    6868.81  64817.7  196890  29488.2
    6880.5  65016.9  199559  30023
    6892.33  65280.3  202454  30635.9
    6904.2  65522.8  205342  31236
    6916.11  65670.4  207891  31806.2
    6928.18  65765.1  210363  32362.5
    6940.28  65980.9  213287  32992.9
    6952.43  66225.8  216263  33655.4
    6964.62  66325.8  218804  34228.1
    6976.96  66489.9  221607  34829.8
    6989.35  66690.1  224564  35470.7
    7001.88  66899.4  227524  36114.7
    7014.47  67023.8  230223  36734.8
    7027.1  67180.3  233101  37381
    7039.77  67325  235904  38030.3
    7052.6  67430.7  238648  38665.8
    7065.48  67527.5  241375  39312.4
    7078.41  67690.5  244373  40000
    7091.39  67543.5  246275  40517.8
    7104.53  67611.6  248941  41166.8
    7111.06  67722.5  250617  41552.5