Folder: XASDataLibrary/data/Cr (part 6)

File: cr2s3_100K_004.xdi
# XDI/1.0
# Column.1: energy eV
# Column.2: i0
# Column.3: itrans
# Column.4: irefer
# Beamline.name: SSRL 2-3
# Beamline.notes: vert slits = 0.6mm
# Detector.I0: N2 15cm
# Detector.I1: N2 30cm
# Detector.I2: N2 15cm
# Element.edge: K
# Element.symbol: Cr
# Mono.d_spacing: 3.13550
# Mono.name: Si(111)
# Mono.notes: unfocused, detuned 75%, clockwise at E=5990eV
# Sample.formula: Cr2S3
# Sample.name: Cr2S3
# Sample.prep: powder on tape (4 layers)
# Sample.reference: Cr foil
# Sample.temperature: 100K
# Scan.start_time: 1997-04-18 17:59:32
# ///
#    Note: mono d_spacing is nominal!
#     exafs to K16
#     396  E XMU XMUR I0
#-------------
#   energy   i0   itrans  irefer
    5759.99  223721  9241.7  1180.3
    5780.01  223236  9610.7  1243.3
    5799.97  222656  9978.7  1307.3
    5820  222088  10366.7  1376.3
    5839.97  221617  10763.7  1446.3
    5860.02  221234  11175.7  1519.3
    5879.99  220662  11588.7  1594.3
    5899.97  220136  12011.7  1671.3
    5920.02  219376  12432.7  1750.3
    5939.99  218794  12862.7  1830.3
    5959.97  218120  13285.7  1908.3
    5970.49  217384  13476.7  1945.3
    5971.53  216148  13422.7  1941.3
    5972.49  213729  13294.7  1922.3
    5973.53  216124  13462.7  1948.3
    5974.5  217390  13563.7  1963.3
    5975.46  217581  13593.7  1969.3
    5976.51  217511  13613.7  1973.3
    5977.47  217367  13624.7  1972.3
    5978.52  217299  13648.7  1975.3
    5979.48  217455  13670.7  1983.3
    5980.53  217258  13678.7  1983.3
    5981.49  217392  13703.7  1986.3
    5982.46  217232  13714.7  1989.3
    5983.51  217623  13754.7  1995.3
    5984.48  217501  13757.7  1993.3
    5985.52  216323  13694.7  1985.3
    5986.49  205551  13022.7  1884.3
    5987.46  187837  11905.7  1721.3
    5988.51  205617  13030.7  1873.3
    5989.48  212374  13424.7  1903.3
    5990.53  214295  13403.7  1811.3
    5991.5  214658  13153.7  1692.3
    5992.47  215075  12920.7  1606.3
    5993.52  215124  12825.7  1551.3
    5994.49  215392  12851.7  1523.3
    5995.47  215159  12731.7  1491.3
    5996.51  215543  12097.7  1412.3
    5997.49  215239  10630.7  1240.3
    5998.54  215156  9070.7  1041.3
    5999.51  215247  8175.7   906.3
    6000.49  214699  7755.7   825.3
    6001.46  212389  7811.7   800.3
    6002.51  213170  8278.7   823.3
    6003.49  215218  8701.7   845.3
    6004.47  215318  8775.7   835.3
    6005.52  215080  8520.7   795.3
    6006.5  215390  8244.7   758.3
    6007.47  215203  8023.7   723.3
    6008.53  215263  7850.7   693.3
    6009.5  215159  7717.7   670.3
    6010.94  215122  7539.46   642.064
    6012.82  215115  7347.51   644.181
    6014.78  214763  7399.62   678.414
    6016.81  215333  7543.78   698.765
    6018.93  215250  7527   683.233
    6021.12  215698  7551.27   674.817
    6023.39  215881  7608.6   685.518
    6025.73  216547  7769.98   707.335
    6028.16  217096  8037.41   719.27
    6030.58  217799  8258.9   728.321
    6033.16  218266  8555.45   748.49
    6035.82  219044  8934.05   779.774
    6038.56  219948  9132.7   792.176
    6041.37  220673  9154.41   791.695
    6044.26  221588  9112.17   791.331
    6047.24  222481  9104.99   799.083
    6050.29  223945  9032.85   801.952
    6053.42  224939  8946.78   811.938
    6056.56  226427  8937.76   831.041
    6059.85  227378  8858.79   835.26
    6063.22  228306  8820.88   836.597
    6066.68  229363  8864.03   830.05
    6070.13  230950  9007.22   825.621
    6073.75  232624  9088.47   818.307
    6077.37  234147  9323.78   854.111
    6081.15  236155  9803.13   923.031
    6084.93  237705  10234.6   990.069
    6088.8  239779  10606  1026.22
    6092.83  241714  10881.5  1013.49
    6096.86  243489  11019.1   983.881
    6100.98  245729  11121.8   967.387
    6105.18  247877  11217.4   994.008
    6109.46  249928  11267.2  1046.75
    6113.83  252334  11197  1080.6
    6118.28  254787  11181.8  1093.57
    6122.74  257164  11280.7  1098.66
    6127.36  259566  11535.7  1128.87
    6131.99  262154  11882.7  1177.19
    6136.79  264721  12201.8  1219.63
    6141.59  267446  12516.9  1246.19
    6146.48  270124  12877.1  1276.86
    6151.46  272899  13196.3  1294.65
    6156.53  275580  13483.6  1317.55
    6161.6  278536  13762.9  1325.58
    6166.84  281472  14048.3  1330.72
    6172.1  284725  14373.8  1382.97
    6177.52  287907  14853.3  1473.35
    6182.95  290873  15233.8  1540.84
    6188.47  294097  15399.4  1572.45
    6194.08  297180  15531.1  1594.17
    6199.7  300516  15735.8  1627.01
    6205.5  303937  16031.6  1669.97
    6211.3  306923  16343.4  1719.04
    6217.2  310577  16731.3  1773.24
    6223.19  314386  17182.2  1809.54
    6229.2  317979  17679.2  1842.97
    6235.38  319705  18060.3  1855.51
    6241.56  316738  18153.4  1848.17
    6247.85  328544  19062.5  1944.95
    6254.23  332519  19616.7  2046.84
    6260.71  336575  20180  2158.85
    6267.2  340207  20634.3  2223.97
    6273.79  344098  21019.7  2276.21
    6280.48  348115  21329.1  2323.58
    6287.26  352550  21709.6  2374.05
    6294.06  356172  22198.2  2434.65
    6300.95  360296  22730.8  2515.36
    6307.95  364344  23225.4  2586.19
    6315.05  369011  23830.1  2657.13
    6322.16  373087  24442.8  2714.19
    6329.38  377354  25073.6  2783.36
    6336.69  381768  25742.5  2858.66
    6344.11  386294  26374.4  2946.07
    6351.55  390593  26945.4  3035.6
    6359.09  395039  27576.4  3135.25
    6366.65  399147  28290.5  3260.01
    6374.31  403654  29047.6  3371.88
    6382.07  407863  29738.8  3463.88
    6389.95  412115  30372.1  3547.99
    6397.84  416522  31010.4  3644.22
    6405.84  421309  31695.7  3730.57
    6413.95  425795  32362.1  3827.03
    6422.08  430562  33102.6  3940.61
    6430.32  434864  33862.1  4045.3
    6438.58  439052  34721.7  4152.12
    6446.95  444251  35649.3  4279.05
    6455.43  448999  36547  4429.09
    6463.93  453621  37497.7  4577.26
    6472.55  457834  38376.5  4705.54
    6481.28  462498  39304.3  4846.93
    6490.03  467601  40275.2  4993.45
    6498.9  471947  41161.2  5119.08
    6507.79  476296  42029.2  5245.82
    6516.8  480735  42941.3  5397.69
    6525.92  485650  43951.4  5558.68
    6535.07  490129  44926.5  5713.77
    6544.25  494359  45924.8  5866.99
    6553.54  498096  46880  6005.32
    6562.95  502682  47972.4  6172.77
    6572.4  507706  49186.7  6364.33
    6581.96  512151  50344.2  6557.02
    6591.55  516151  51414.7  6737.81
    6601.26  520997  52568.2  6926.73
    6611.09  525869  53806.8  7125.76
    6620.95  530028  54973.5  7314.91
    6630.85  534601  56203.2  7515.18
    6640.87  537892  57284  7706.56
    6650.92  542906  58575.8  7919.06
    6661.1  546632  59762.7  8121.68
    6671.31  550792  61008.6  8329.42
    6681.64  554957  62247.6  8543.26
    6692.01  557766  63380.6  8740.23
    6702.51  534407  61569.8  8529.31
    6713.04  573920  66975.9  9324.51
    6723.7  575080  68061.1  9515.83
    6734.4  576360  69183.3  9725.26
    6745.14  581232  70746.6  10002.8
    6756  575140  71018  10096.5
    6766.91  590753  73918.4  10564.3
    6777.94  595881  75616.9  10858.2
    6789.02  597068  76819.4  11096.2
    6800.23  595512  77672  11288.3
    6811.48  616445  81473.7  11904.6
    6822.77  613800  82267.3  12084.9
    6834.19  615973  83692.1  12356.4
    6845.66  619191  85298.9  12655
    6857.16  622454  86946.8  12965.8
    6868.81  625095  88542.6  13275.6
    6880.5  628110  90250.6  13606.5
    6892.33  631481  91988.7  13938.6
    6904.2  635177  93834.7  14280.8
    6916.11  639423  95785.8  14660.1
    6928.18  641169  97419  14990.5
    6940.28  644844  99328.3  15374.1
    6952.43  647843  101185  15748.7
    6964.62  650054  102910  16091.5
    6976.96  653200  104883  16491.4
    6989.35  655143  106621  16848.4
    7001.88  658055  108551  17239.5
    7014.47  661418  110537  17633.7
    7027.1  664307  112536  18041.1
    7039.77  666428  114418  18441.6
    7052.6  668665  116365  18849.2
    7065.48  671213  118367  19280.9
    7078.41  673574  120418  19714.7
    7091.39  676445  122579  20167.6
    7104.53  676947  124328  20567.7
    7111.06  678026  125336  20789.5

File: cr2s3_rt_001.xdi
# XDI/1.0
# Column.1: energy eV
# Column.2: i0
# Column.3: itrans
# Beamline.name: SSRL 4-1
# Detector.I0: N2 15cm
# Detector.I1: N2 30cm
# Detector.I2: N2 15cm
# Element.edge: K
# Element.symbol: Cr
# Mono.d_spacing: 3.13550
# Mono.name: Si(111)
# Mono.notes: unfocused, detuned 30%,counter clockwise at E=6200eV
# Sample.formula: Cr2S3
# Sample.name: Cr2S3 chromium sesquisulfide
# Sample.prep: powder, mixed 1:50 with B(OH)3 by wt
# Sample.reference: none
# Sample.temperature: room temperature
# Scan.start_time: 1997-01-20 15:45:55
# ///
#    Note: mono d_spacing is nominal!
#     exafs to K15
#     381  E XMU I0
#-------------
#   energy   i0   itrans
    5789  249607  144543
    5810.25  250964  154675
    5831.5  251898  165174
    5852.75  253033  176427
    5874  253643  187868
    5895.25  254202  199973
    5916.5  254351  212238
    5937.75  255217  225824
    5959  255519  239378
    5960.52  255140  239937
    5962.03  255602  241376
    5963.54  255983  242710
    5965.06  255619  243306
    5966.58  255631  244320
    5968.09  255483  245105
    5969.6  255810  246433
    5971.12  255973  247524
    5972.64  254500  246972
    5974.15  253174  246888
    5975.67  253620  248372
    5977.18  254183  249436
    5978.7  255342  251639
    5980.21  255861  253050
    5981.73  255902  253982
    5983.24  254991  253885
    5984.76  241041  240905
    5986.27  242634  242499
    5987.79  252643  252506
    5989.3  254623  250768
    5990.82  255198  247038
    5992.33  255786  246873
    5993.85  254008  240900
    5995.36  250911  216586
    5996.88  251631  191593
    5998.39  254691  182923
    5999.91  255170  186276
    6001.42  255210  192721
    6002.94  255442  192830
    6004.45  255534  188203
    6005.97  255414  184564
    6007.49  255332  182191
    6009  255593  180277
    6009.04  255627  180204
    6009.15  255442  179971
    6009.35  255792  179980
    6009.62  256028  179833
    6009.97  256190  179643
    6010.39  256352  179503
    6010.89  256669  179628
    6011.47  256762  179870
    6012.13  257507  180941
    6012.86  258129  182112
    6013.67  258525  183242
    6014.56  259130  184363
    6015.53  259712  185266
    6016.57  260233  185869
    6017.69  261176  186864
    6018.88  261631  187868
    6020.16  262480  189311
    6021.51  262978  190602
    6022.94  264164  192989
    6024.44  264864  195502
    6026.03  266123  199099
    6027.69  267183  202540
    6029.43  268140  206073
    6031.24  269235  210658
    6033.14  270247  215399
    6035.1  271492  219327
    6037.15  272858  221935
    6039.27  274309  223617
    6041.47  275391  224430
    6043.75  277020  226041
    6046.11  278212  226890
    6048.54  279656  227278
    6051.05  281468  228325
    6053.64  282556  229220
    6056.3  284059  230059
    6059.04  285315  230659
    6061.86  286269  232019
    6064.76  288233  235140
    6067.73  290105  238902
    6070.78  291816  242260
    6073.91  293648  246848
    6077.11  295449  253697
    6080.4  297182  261174
    6083.76  299659  268512
    6087.19  301693  274724
    6090.7  303851  280098
    6094.3  305771  284169
    6097.97  307856  287964
    6101.71  310374  292156
    6105.53  312645  295730
    6109.43  314526  297878
    6113.41  317121  300616
    6117.46  319713  304305
    6121.6  321776  308715
    6125.81  324827  315633
    6130.09  326776  322247
    6134.45  329878  329737
    6138.89  332165  336861
    6143.41  334957  345178
    6148.01  337342  352854
    6152.68  340179  360709
    6157.43  342595  368102
    6162.26  345634  376118
    6167.16  348212  383769
    6172.14  351781  393396
    6177.2  354240  402688
    6182.33  357430  411239
    6187.55  360363  418245
    6192.84  362975  424885
    6198.2  366435  433295
    6203.65  369279  441766
    6209.17  372770  451850
    6214.77  376117  462310
    6220.45  379493  473671
    6226.2  382199  485029
    6232.03  386010  497964
    6237.94  386734  507006
    6243.92  384523  512033
    6249.98  395802  535824
    6256.12  398944  549086
    6262.34  402610  562602
    6268.63  406246  575815
    6275.01  409472  587842
    6281.45  413305  600717
    6287.98  416809  614391
    6294.58  420263  628746
    6301.26  423791  643483
    6308.02  427709  659476
    6314.85  431400  676105
    6321.77  435288  693673
    6328.76  439581  712446
    6335.82  443054  730332
    6342.97  446238  747680
    6350.19  449881  766188
    6357.48  454232  786590
    6364.86  458461  807863
    6372.31  462839  829536
    6379.84  466313  849566
    6387.45  469994  870166
    6395.13  474520  892469
    6402.89  477973  913497
    6410.73  481700  935662
    6418.65  485967  959889
    6426.64  490266  985258
    6434.71  493461  1.00955e+06
    6442.86  497338  1.03583e+06
    6451.08  501926  1.06437e+06
    6459.38  505669  1.09195e+06
    6467.76  509962  1.12107e+06
    6476.22  514425  1.1513e+06
    6484.75  518336  1.18087e+06
    6493.36  522056  1.21028e+06
    6502.05  526340  1.24168e+06
    6510.82  531023  1.27483e+06
    6519.66  534584  1.30629e+06
    6528.58  538539  1.3394e+06
    6537.58  543163  1.37533e+06
    6546.65  546640  1.40923e+06
    6555.8  550381  1.44517e+06
    6565.03  554613  1.48343e+06
    6574.33  558585  1.52183e+06
    6583.72  562987  1.5626e+06
    6593.18  566521  1.60156e+06
    6602.72  571056  1.6445e+06
    6612.33  575348  1.68784e+06
    6622.02  579428  1.73154e+06
    6631.79  583825  1.77732e+06
    6641.64  586983  1.81976e+06
    6651.56  590877  1.86562e+06
    6661.56  594123  1.91059e+06
    6671.64  598535  1.96017e+06
    6681.8  602042  2.00816e+06
    6692.03  605722  2.05828e+06
    6702.34  606705  2.10009e+06
    6712.73  590065  2.07934e+06
    6723.19  625120  2.24357e+06
    6733.73  624797  2.28762e+06
    6744.35  630484  2.35244e+06
    6755.04  639818  2.43298e+06
    6765.82  631232  2.44322e+06
    6776.67  638080  2.52067e+06
    6787.6  618238  2.4886e+06
    6798.6  658487  2.70134e+06
    6809.68  656992  2.74621e+06
    6820.84  659531  2.80932e+06
    6832.08  662228  2.87488e+06
    6843.39  666424  2.94838e+06
    6854.78  669304  3.01799e+06
    6866.25  672589  3.091e+06

File: cr2s3_rt_002.xdi
# XDI/1.0
# Column.1: energy eV
# Column.2: i0
# Column.3: itrans
# Beamline.name: SSRL 4-1
# Detector.I0: N2 15cm
# Detector.I1: N2 30cm
# Detector.I2: N2 15cm
# Element.edge: K
# Element.symbol: Cr
# Mono.d_spacing: 3.13550
# Mono.name: Si(111)
# Mono.notes: unfocused, detuned 30%,counter clockwise at E=6200eV
# Sample.formula: Cr2S3
# Sample.name: Cr2S3 chromium sesquisulfide
# Sample.prep: powder, mixed 1:50 with B(OH)3 by wt
# Sample.reference: none
# Sample.temperature: room temperature
# Scan.start_time: 1997-01-20 15:45:55
# ///
#    Note: mono d_spacing is nominal!
#     exafs to K15
#     381  E XMU I0
#-------------
#   energy   i0   itrans
    5789  250852  145240
    5810.25  251743  155092
    5831.5  252930  165793
    5852.75  253224  176519
    5874  253977  188062
    5895.25  254604  200185
    5916.5  255548  213197
    5937.75  255648  226105
    5959  256204  239909
    5960.52  256402  241095
    5962.03  256301  241892
    5963.54  256450  243068
    5965.06  256430  244000
    5966.58  256555  245106
    5968.09  256422  245974
    5969.6  256507  246949
    5971.12  256472  247894
    5972.64  254982  247327
    5974.15  254100  247643
    5975.67  254193  248832
    5977.18  254901  250034
    5978.7  256223  252356
    5980.21  256513  253530
    5981.73  256792  254708
    5983.24  255904  254690
    5984.76  243286  243151
    5986.27  242184  242049
    5987.79  253028  252891
    5989.3  255160  251453
    5990.82  255684  247608
    5992.33  256182  247181
    5993.85  254979  242307
    5995.36  251982  219048
    5996.88  252310  193159
    5998.39  255517  183653
    5999.91  255821  186415
    6001.42  256451  193418
    6002.94  255857  193327
    6004.45  256250  188950
    6005.97  256339  185334
    6007.49  256424  183088
    6009  256463  181004
    6009.04  256278  180769
    6009.15  256196  180563
    6009.35  256484  180553
    6009.62  256907  180497
    6009.97  256794  180133
    6010.39  257204  180066
    6010.89  257525  180212
    6011.47  258224  180859
    6012.13  258600  181648
    6012.86  258861  182529
    6013.67  259497  183778
    6014.56  259891  184850
    6015.53  260366  185643
    6016.57  261142  186459
    6017.69  261734  187207
    6018.88  262300  188246
    6020.16  263156  189682
    6021.51  264078  191361
    6022.94  264957  193413
    6024.44  265798  196050
    6026.03  266588  199338
    6027.69  267567  202699
    6029.43  268822  206417
    6031.24  269785  210892
    6033.14  271313  216089
    6035.1  272262  219839
    6037.15  273660  222480
    6039.27  274873  224006
    6041.47  275804  224705
    6043.75  277548  226378
    6046.11  278755  227341
    6048.54  280706  228148
    6051.05  281966  228716
    6053.64  283529  229961
    6056.3  284754  230600
    6059.04  285799  231036
    6061.86  287388  232846
    6064.76  288768  235470
    6067.73  290475  239084
    6070.78  292459  242756
    6073.91  294517  247462
    6077.11  296637  254527
    6080.4  298152  261894
    6083.76  300260  268917
    6087.19  302175  275027
    6090.7  304662  280721
    6094.3  306782  285043
    6097.97  308717  288732
    6101.71  310868  292542
    6105.53  313296  296289
    6109.43  315213  298446
    6113.41  317816  301142
    6117.46  320464  304852
    6121.6  322380  309144
    6125.81  324919  315547
    6130.09  327296  322604
    6134.45  329842  329666
    6138.89  332841  337372
    6143.41  335449  345508
    6148.01  338152  353496
    6152.68  340522  360961
    6157.43  343732  369195
    6162.26  346364  376718
    6167.16  349556  385038
    6172.14  352189  393650
    6177.2  355170  403497
    6182.33  357932  411655
    6187.55  360533  418234
    6192.84  363825  425698
    6198.2  366763  433516
    6203.65  369349  441647
    6209.17  372819  451635
    6214.77  376222  462261
    6220.45  379267  473242
    6226.2  382429  485094
    6232.03  386364  498201
    6237.94  387163  507345
    6243.92  384359  511655
    6249.98  395698  535390
    6256.12  399089  549079
    6262.34  402460  562199
    6268.63  405727  574706
    6275.01  409198  587126
    6281.45  413027  600020
    6287.98  416676  613846
    6294.58  420447  628654
    6301.26  423974  643340
    6308.02  427925  659364
    6314.85  431372  675670
    6321.77  434485  691978
    6328.76  438922  710969
    6335.82  442352  728876
    6342.97  445713  746401
    6350.19  449804  765654
    6357.48  453512  785088
    6364.86  457357  805612
    6372.31  461634  827109
    6379.84  465498  847796
    6387.45  469023  868067
    6395.13  472694  888665
    6402.89  477397  911975
    6410.73  481272  934435
    6418.65  485422  958391
    6426.64  489221  982834
    6434.71  492959  1.00815e+06
    6442.86  496901  1.0345e+06
    6451.08  501621  1.06333e+06
    6459.38  505622  1.09138e+06
    6467.76  510435  1.12169e+06
    6476.22  514008  1.14986e+06
    6484.75  517212  1.17785e+06
    6493.36  521841  1.20945e+06
    6502.05  525841  1.2401e+06
    6510.82  529121  1.26983e+06
    6519.66  533808  1.30395e+06
    6528.58  537884  1.33737e+06
    6537.58  542631  1.37346e+06
    6546.65  545523  1.40595e+06
    6555.8  550763  1.44564e+06
    6565.03  554541  1.48267e+06
    6574.33  558652  1.52157e+06
    6583.72  563426  1.56308e+06
    6593.18  567269  1.60303e+06
    6602.72  571899  1.64624e+06
    6612.33  575573  1.6879e+06
    6622.02  579801  1.7321e+06
    6631.79  583437  1.77533e+06
    6641.64  588354  1.82335e+06
    6651.56  592485  1.87006e+06
    6661.56  596153  1.91633e+06
    6671.64  599445  1.96222e+06
    6681.8  603256  2.01161e+06
    6692.03  606676  2.06078e+06
    6702.34  608438  2.10535e+06
    6712.73  590845  2.08114e+06
    6723.19  627061  2.24971e+06
    6733.73  626588  2.29343e+06
    6744.35  631589  2.35583e+06
    6755.04  641891  2.44033e+06
    6765.82  633808  2.45248e+06
    6776.67  641332  2.53266e+06
    6787.6  619951  2.4948e+06
    6798.6  661415  2.71248e+06
    6809.68  659781  2.75684e+06
    6820.84  662691  2.82185e+06
    6832.08  665137  2.88669e+06
    6843.39  668694  2.9576e+06
    6854.78  671522  3.02687e+06
    6866.25  675493  3.10356e+06