Folder: XASDataLibrary/data/Cr (part 7)

File: cr2s3_rt_003.xdi
# XDI/1.0
# Column.1: energy eV
# Column.2: i0
# Column.3: itrans
# Beamline.name: SSRL 4-1
# Detector.I0: N2 15cm
# Detector.I1: N2 30cm
# Detector.I2: N2 15cm
# Element.edge: K
# Element.symbol: Cr
# Mono.d_spacing: 3.13550
# Mono.name: Si(111)
# Mono.notes: unfocused, detuned 30%,counter clockwise at E=6200eV
# Sample.formula: Cr2S3
# Sample.name: Cr2S3 chromium sesquisulfide
# Sample.prep: powder, mixed 1:50 with B(OH)3 by wt
# Sample.reference: none
# Sample.temperature: room temperature
# Scan.start_time: 1997-01-20 15:45:55
# ///
#    Note: mono d_spacing is nominal!
#     exafs to K15
#     381  E XMU I0
#-------------
#   energy   i0   itrans
    5789  242417  139709
    5810.25  243766  149529
    5831.5  244836  159848
    5852.75  245460  170402
    5874  245471  181154
    5895.25  246337  193022
    5916.5  246124  204613
    5937.75  246427  217227
    5959  246378  230024
    5960.52  246092  230703
    5962.03  246033  231556
    5963.54  246079  232659
    5965.06  245684  233202
    5966.58  246073  234517
    5968.09  245738  235147
    5969.6  245912  236311
    5971.12  245489  236791
    5972.64  244536  236770
    5974.15  243228  236593
    5975.67  242929  237419
    5977.18  243174  238172
    5978.7  244651  240612
    5980.21  245348  242180
    5981.73  245192  242910
    5983.24  244686  243210
    5984.76  235175  234711
    5986.27  228947  228493
    5987.79  241684  241314
    5989.3  243607  240353
    5990.82  244198  236510
    5992.33  244703  236054
    5993.85  243892  232403
    5995.36  240810  211743
    5996.88  240928  186155
    5998.39  243968  175801
    5999.91  244853  177860
    6001.42  245169  184524
    6002.94  245340  185768
    6004.45  245290  181372
    6005.97  245423  177859
    6007.49  245487  175555
    6009  245339  173466
    6009.04  245080  173212
    6009.15  245503  173339
    6009.35  246032  173526
    6009.62  246019  173188
    6009.97  246077  172884
    6010.39  246669  172965
    6010.89  247082  173097
    6011.47  247390  173391
    6012.13  248185  174370
    6012.86  248632  175323
    6013.67  249187  176536
    6014.56  249503  177533
    6015.53  250306  178618
    6016.57  251347  179639
    6017.69  251884  180304
    6018.88  252500  181356
    6020.16  253660  182946
    6021.51  254376  184391
    6022.94  255164  186291
    6024.44  256162  188945
    6026.03  257798  192693
    6027.69  258585  195878
    6029.43  259575  199302
    6031.24  260926  203896
    6033.14  262078  208672
    6035.1  263372  212730
    6037.15  264404  215131
    6039.27  265945  216986
    6041.47  267264  218040
    6043.75  268830  219485
    6046.11  270194  220595
    6048.54  271622  221011
    6051.05  273449  222022
    6053.64  274948  223232
    6056.3  276520  224198
    6059.04  277588  224600
    6061.86  278925  226152
    6064.76  280818  229099
    6067.73  282869  233001
    6070.78  284549  236308
    6073.91  286123  240427
    6077.11  288434  247531
    6080.4  290358  255029
    6083.76  292082  261627
    6087.19  294663  268327
    6090.7  296310  273115
    6094.3  298765  277743
    6097.97  300908  281637
    6101.71  303216  285532
    6105.53  305711  289353
    6109.43  308043  291974
    6113.41  310869  294798
    6117.46  313276  298265
    6121.6  315478  302722
    6125.81  318038  309048
    6130.09  320468  316026
    6134.45  323336  323160
    6138.89  325885  330505
    6143.41  328555  338590
    6148.01  331677  346979
    6152.68  334570  354808
    6157.43  337061  362212
    6162.26  340013  370053
    6167.16  342874  377966
    6172.14  346161  387101
    6177.2  348716  396397
    6182.33  352260  405388
    6187.55  355147  412293
    6192.84  358003  419139
    6198.2  361739  427786
    6203.65  364511  436138
    6209.17  367785  445820
    6214.77  370975  456035
    6220.45  373969  466900
    6226.2  377636  479184
    6232.03  380932  491484
    6237.94  381621  500242
    6243.92  378935  504593
    6249.98  391134  529387
    6256.12  394242  542642
    6262.34  397790  555930
    6268.63  401286  568805
    6275.01  405546  582093
    6281.45  408935  594328
    6287.98  412187  607433
    6294.58  416101  622321
    6301.26  420233  638047
    6308.02  423607  653093
    6314.85  428611  671564
    6321.77  431294  687162
    6328.76  435354  705538
    6335.82  439328  724104
    6342.97  443256  742689
    6350.19  447914  762663
    6357.48  451234  781256
    6364.86  455096  801716
    6372.31  459294  822895
    6379.84  464235  845596
    6387.45  466866  864086
    6395.13  471367  886300
    6402.89  475184  907848
    6410.73  479661  931383
    6418.65  484050  955852
    6426.64  488010  980429
    6434.71  491680  1.00562e+06
    6442.86  495590  1.03199e+06
    6451.08  500828  1.06162e+06
    6459.38  504632  1.08948e+06
    6467.76  508545  1.11773e+06
    6476.22  513613  1.14915e+06
    6484.75  517584  1.17883e+06
    6493.36  521472  1.20868e+06
    6502.05  525876  1.24027e+06
    6510.82  530399  1.27304e+06
    6519.66  534683  1.30623e+06
    6528.58  538263  1.33835e+06
    6537.58  542626  1.37359e+06
    6546.65  547039  1.40986e+06
    6555.8  551352  1.44719e+06
    6565.03  555750  1.48596e+06
    6574.33  559569  1.524e+06
    6583.72  564157  1.56519e+06
    6593.18  568941  1.60775e+06
    6602.72  572728  1.64859e+06
    6612.33  576854  1.69149e+06
    6622.02  580400  1.73377e+06
    6631.79  584829  1.77966e+06
    6641.64  589448  1.82658e+06
    6651.56  593144  1.87205e+06
    6661.56  596856  1.91852e+06
    6671.64  601142  1.96777e+06
    6681.8  604144  2.01442e+06
    6692.03  607690  2.06381e+06
    6702.34  610089  2.11076e+06
    6712.73  592155  2.08531e+06
    6723.19  628179  2.25312e+06
    6733.73  627084  2.295e+06
    6744.35  633235  2.36159e+06
    6755.04  644239  2.4485e+06
    6765.82  633378  2.45011e+06
    6776.67  642198  2.53545e+06
    6787.6  621859  2.50229e+06
    6798.6  663167  2.71938e+06
    6809.68  661977  2.76546e+06
    6820.84  664753  2.83004e+06
    6832.08  667216  2.89505e+06
    6843.39  670286  2.96394e+06
    6854.78  674292  3.03894e+06
    6866.25  678424  3.11633e+06

File: cro2_15K_001.xdi
# XDI/1.0
# Column.1: energy eV
# Column.2: i0
# Column.3: itrans
# Column.4: irefer
# Beamline.name: SSRL 2-3
# Beamline.notes: vert slits = 0.6mm
# Detector.I0: N2 15cm
# Detector.I1: N2 30cm
# Detector.I2: N2 15cm
# Element.edge: K
# Element.symbol: Cr
# Mono.d_spacing: 3.13550
# Mono.name: Si(111)
# Mono.notes: unfocused, detuned 75%, clockwise at E=5990eV
# Sample.formula: CrO2
# Sample.name: CrO2
# Sample.prep: powder on tape (4 layers)
# Sample.reference: Cr foil
# Sample.temperature: 15K
# Scan.start_time: 1997-04-18 13:47:10
# ///
#    Note: mono d_spacing is nominal!
#     exafs to K16
#     396  E XMU XMUR I0
#-------------
#   energy   i0   itrans  irefer
    5759.99  150202  9658.7  1224.3
    5780.01  149063  9941.7  1275.3
    5799.97  147213  10183.7  1322.3
    5820  143925  10319.7  1359.3
    5839.97  142704  10607.7  1412.3
    5860.02  141371  10891.7  1468.3
    5879.99  140460  11203.7  1528.3
    5899.97  139402  11506.7  1588.3
    5920.02  138057  11783.7  1646.3
    5939.99  136622  12053.7  1704.3
    5959.97  135637  12356.7  1765.3
    5970.49  134482  12460.7  1788.3
    5971.53  134413  12477.7  1792.3
    5972.49  133949  12454.7  1789.3
    5973.53  133698  12435.7  1788.3
    5974.5  135228  12604.7  1811.3
    5975.46  135454  12650.7  1819.3
    5976.51  135731  12691.7  1825.3
    5977.47  133822  12530.7  1805.3
    5978.52  133939  12557.7  1808.3
    5979.48  133854  12568.7  1809.3
    5980.53  134032  12602.7  1815.3
    5981.49  134002  12626.7  1819.3
    5982.46  134419  12680.7  1828.3
    5983.51  134636  12723.7  1833.3
    5984.48  134907  12767.7  1839.3
    5985.52  134917  12785.7  1840.3
    5986.49  133446  12676.7  1823.3
    5987.46  124918  11893.7  1707.3
    5988.51  119739  11372.7  1631.3
    5989.48  125893  11989.7  1707.3
    5990.53  128730  12277.7  1709.3
    5991.5  129422  12344.7  1631.3
    5992.47  129721  12354.7  1564.3
    5993.52  129806  12355.7  1513.3
    5994.49  129932  12365.7  1476.3
    5995.47  129975  12360.7  1449.3
    5996.51  129959  12371.7  1437.3
    5997.49  130016  12404.7  1441.3
    5998.54  130404  12460.7  1439.3
    5999.51  130545  12478.7  1407.3
    6000.49  130422  12426.7  1349.3
    6001.46  129873  12275.7  1280.3
    6002.51  128406  11977.7  1203.3
    6003.49  130280  11994.7  1172.3
    6004.47  130732  11853.7  1131.3
    6005.52  130784  11701.7  1095.3
    6006.5  130879  11580.7  1066.3
    6007.47  130791  11402.7  1031.3
    6008.53  131064  11191.7   991.3
    6009.5  131353  10959.7   955.3
    6010.94  131033  10582.5   899.064
    6012.82  131002  10462.5   893.181
    6014.78  131026  10546.6   945.415
    6016.81  130947  10730.8   984.765
    6018.93  131019  10873   984.234
    6021.12  131327  11044.3   977.817
    6023.39  131866  11225.6   995.518
    6025.73  132008  11233  1007.33
    6028.16  132515  11229.4   998.27
    6030.58  132856  11321.9   990.322
    6033.16  132600  11525.5   999.49
    6035.82  133346  11809  1023.77
    6038.56  133571  12038.7  1039.18
    6041.37  133997  12244.4  1048.69
    6044.26  134307  12318.2  1058.33
    6047.24  135024  12373  1075.08
    6050.29  135698  12493.9  1096.95
    6053.42  136177  12608.8  1129.94
    6056.56  136548  12660.8  1162.04
    6059.85  137049  12673.8  1180.26
    6063.22  137409  12681.9  1191.6
    6066.68  138136  12757  1190.05
    6070.13  138944  12822.2  1169.62
    6073.75  136053  12574.5  1123.31
    6077.37  136944  12772.8  1155.11
    6081.15  137777  12979.1  1208.03
    6084.93  138524  13155.5  1261.07
    6088.8  139461  13331  1287.22
    6092.83  140379  13500.5  1262.49
    6096.86  141489  13699.1  1222.88
    6100.98  142373  13900.8  1203.39
    6105.18  143471  14136.4  1237.01
    6109.46  144471  14320.2  1308.75
    6113.83  145896  14522  1385.6
    6118.28  146931  14736.8  1429.57
    6122.74  148389  15058.7  1457.66
    6127.36  149476  15358.7  1485.87
    6131.99  150494  15612.7  1530.19
    6136.79  151681  15839.8  1566.63
    6141.59  153034  16046.9  1586.19
    6146.48  154777  16309.1  1604.86
    6151.46  156451  16561.3  1613.65
    6156.53  157867  16771.6  1626.55
    6161.6  159572  17074.9  1634.58
    6166.84  160780  17344.3  1632.72
    6172.1  162395  17653.8  1681.98
    6177.52  163750  17966.3  1759.35
    6182.95  165476  18344.8  1836.84
    6188.47  167165  18721.4  1895.45
    6194.08  168341  19039.1  1940.17
    6199.7  169963  19383.8  1988.01
    6205.5  171696  19713.6  2035.97
    6211.3  173094  20051.4  2091.04
    6217.2  173846  20336.3  2141.24
    6223.19  175378  20702.2  2173.54
    6229.2  176973  21091.2  2190.97
    6235.38  178058  21421.3  2193.51
    6241.56  178170  21588.4  2192.17
    6247.85  181522  22196.5  2254.95
    6254.23  183751  22694.8  2352.84
    6260.71  185286  23066  2454.85
    6267.2  187120  23483.3  2522.97
    6273.79  188725  23916.7  2577.22
    6280.48  189220  24168.1  2622.58
    6287.26  186392  24024.6  2616.05
    6294.06  187974  24461.2  2673.65
    6300.95  189576  24901.7  2742.36
    6307.95  190775  25296.4  2804.18
    6315.05  192539  25773.1  2863.13
    6322.16  194360  26259.8  2903.19
    6329.38  195776  26715.7  2946.37
    6336.69  197358  27201.5  3004.66
    6344.11  198991  27682.4  3074.07
    6351.55  200738  28194.4  3159.6
    6359.09  202436  28746.4  3249.24
    6366.65  203986  29265.5  3347.01
    6374.31  205459  29776.6  3432.88
    6382.07  206783  30271.8  3505.88
    6389.95  205720  30401.1  3531.99
    6397.84  205425  30658.4  3579.22
    6405.84  205742  31017.7  3629.56
    6413.95  206871  31510.1  3703.03
    6422.08  207738  31975.6  3780.61
    6430.32  209137  32519.1  3858.31
    6438.58  209926  32994.7  3917.12
    6446.95  210930  33526.3  3999.05
    6455.43  211808  34041  4090.1
    6463.93  213282  34643.7  4192.26
    6472.55  214289  35192.5  4284.54
    6481.28  214996  35679.3  4365.93
    6490.03  216250  36243.2  4467.45
    6498.9  217352  36821.2  4550.08
    6507.79  218519  37430.2  4648.83
    6516.8  219875  38077.3  4760.69
    6525.92  220946  38698.4  4872.67
    6535.07  221997  39303.5  4970.77
    6544.25  223611  40034.7  5081.98
    6553.54  223963  40548  5163.32
    6562.95  224997  41202.3  5270.76
    6572.4  226374  41891.8  5388.33
    6581.96  228115  42664.2  5519.02
    6591.55  229519  43390.7  5649.82
    6601.26  230967  44125.2  5784.73
    6611.09  232399  44897.9  5911.76
    6620.95  233602  45649.5  6041.91
    6630.85  234908  46412.2  6172.18
    6640.87  236094  47156  6308.56
    6650.92  237545  47974.8  6448.07
    6661.1  238507  48671.7  6584.68
    6671.31  239058  49321.6  6702.41
    6681.64  239245  49888.6  6809.26
    6692.01  239122  50416.6  6912.23
    6702.51  227888  48632.7  6698.31
    6713.04  244071  52602.9  7281.51
    6723.7  242383  52794.1  7342.83
    6734.4  242171  53344.3  7454.27
    6745.14  243175  54173.6  7612.82
    6756  237262  53404  7542.48
    6766.91  248569  56613.4  8050.27
    6777.94  250117  57613.9  8238.17
    6789.02  249886  58222.5  8370.19
    6800.23  248439  58540  8461.32
    6811.48  259930  61913.6  8993.58
    6822.77  254203  61250.4  8946.95
    6834.19  253744  61852.1  9078.44
    6845.66  254134  62638.9  9245.03
    6857.16  256400  63922.8  9470.76
    6868.81  252561  63661.7  9480.59
    6880.5  253949  64731.6  9700.54
    6892.33  253994  65481.6  9867.61
    6904.2  254453  66344.7  10049.8
    6916.11  254629  67145.8  10227.1
    6928.18  254527  67876  10401.5
    6940.28  254812  68727.2  10592.1
    6952.43  255299  69637.5  10794.7
    6964.62  256017  70630.9  10999.5
    6976.96  256528  71551.3  11203.4
    6989.35  256596  72371.7  11389.4
    7001.88  257231  73364.2  11602.5
    7014.47  259811  74925.8  11919.7
    7027.1  260280  75891.4  12127.1
    7039.77  260423  76738.1  12327.6
    7052.6  260495  77618.8  12538.2
    7065.48  260409  78441.6  12741.9
    7078.41  260317  79277.4  12941.7
    7091.39  259790  79973.3  13123.6
    7104.53  259984  80890.2  13335.7
    7111.06  259706  81231.5  13426.5

File: cro2_15K_002.xdi
# XDI/1.0
# Column.1: energy eV
# Column.2: i0
# Column.3: itrans
# Column.4: irefer
# Beamline.name: SSRL 2-3
# Beamline.notes: vert slits = 0.6mm
# Detector.I0: N2 15cm
# Detector.I1: N2 30cm
# Detector.I2: N2 15cm
# Element.edge: K
# Element.symbol: Cr
# Mono.d_spacing: 3.13550
# Mono.name: Si(111)
# Mono.notes: unfocused, detuned 75%, clockwise at E=5990eV
# Sample.formula: CrO2
# Sample.name: CrO2
# Sample.prep: powder on tape (4 layers)
# Sample.reference: Cr foil
# Sample.temperature: 15K
# Scan.start_time: 1997-04-18 13:47:10
# ///
#    Note: mono d_spacing is nominal!
#     exafs to K16
#     396  E XMU XMUR I0
#-------------
#   energy   i0   itrans  irefer
    5759.99  138774  8919.7  1128.3
    5780.01  137737  9186.7  1178.3
    5799.97  136451  9436.7  1223.3
    5820  135386  9707.7  1274.3
    5839.97  134144  9966.7  1326.3
    5860.02  132992  10236.7  1379.3
    5879.99  131746  10499.7  1431.3
    5899.97  130577  10769.7  1486.3
    5920.02  129168  11020.7  1539.3
    5939.99  127702  11258.7  1589.3
    5959.97  126314  11499.7  1640.3
    5970.49  125523  11622.7  1666.3
    5971.53  125235  11615.7  1667.3
    5972.49  124149  11535.7  1656.3
    5973.53  123904  11519.7  1655.3
    5974.5  125694  11702.7  1682.3
    5975.46  125915  11742.7  1690.3
    5976.51  125923  11765.7  1691.3
    5977.47  125879  11777.7  1693.3
    5978.52  126053  11815.7  1699.3
    5979.48  125984  11824.7  1699.3
    5980.53  125901  11833.7  1702.3
    5981.49  125907  11851.7  1705.3
    5982.46  126037  11880.7  1710.3
    5983.51  126420  11935.7  1716.3
    5984.48  125674  11879.7  1710.3
    5985.52  126178  11946.7  1716.3
    5986.49  124430  11799.7  1697.3
    5987.46  116903  11110.7  1595.3
    5988.51  112726  10697.7  1533.3
    5989.48  119425  11363.7  1620.3
    5990.53  122433  11670.7  1628.3
    5991.5  123219  11743.7  1559.3
    5992.47  123441  11753.7  1492.3
    5993.52  123330  11731.7  1438.3
    5994.49  123504  11739.7  1404.3
    5995.47  123492  11735.7  1380.3
    5996.51  123374  11738.7  1365.3
    5997.49  123518  11779.7  1369.3
    5998.54  123053  11749.7  1359.3
    5999.51  123097  11755.7  1328.3
    6000.49  122756  11686.7  1273.3
    6001.46  122309  11557.7  1209.3
    6002.51  120925  11271.7  1137.3
    6003.49  122935  11308.7  1109.3
    6004.47  123312  11174.7  1071.3
    6005.52  123139  11013.7  1033.3
    6006.5  122875  10867.7  1003.3
    6007.47  122819  10699.7   970.3
    6008.53  122657  10465.7   931.3
    6009.5  122912  10250.7   895.3
    6010.94  122552  9892.46   841.064
    6012.82  122594  9789.51   837.18
    6014.78  122460  9851.62   886.415
    6016.81  122413  10025.8   921.765
    6018.93  122672  10175   922.233
    6021.12  122702  10311.3   915.817
    6023.39  122766  10447.6   931.518
    6025.73  123013  10460   942.335
    6028.16  123210  10434.4   932.27
    6030.58  123520  10519.9   926.32
    6033.16  123759  10748.4   938.489
    6035.82  123967  10974   956.774
    6038.56  124448  11203.7   974.177
    6041.37  124756  11384.4   980.695
    6044.26  125193  11481.2   995.332
    6047.24  125648  11512  1005.08
    6050.29  126174  11604.9  1023.95
    6053.42  126482  11700.8  1051.94
    6056.56  127032  11766.8  1082.04
    6059.85  127525  11778.8  1101.26
    6063.22  127727  11776.9  1111.6
    6066.68  128381  11849  1110.05
    6070.13  129168  11914.2  1090.62
    6073.75  129781  11990.5  1072.31
    6077.37  130530  12169.8  1104.11
    6081.15  131195  12357.1  1152.03
    6084.93  132024  12536.6  1205.07
    6088.8  132908  12710  1231.22
    6092.83  133607  12851.5  1199.49
    6096.86  134513  13029.1  1165.88
    6100.98  135363  13216.8  1145.39
    6105.18  136399  13444.4  1177.01
    6109.46  137405  13627.2  1245.75
    6113.83  138432  13776  1315.6
    6118.28  139418  13983.8  1358.57
    6122.74  140517  14262.7  1378.66
    6127.36  141494  14542.7  1404.87
    6131.99  142609  14789.7  1447.19
    6136.79  143485  14973.8  1481.63
    6141.59  144654  15165.9  1498.18
    6146.48  145743  15361.1  1509.86
    6151.46  146849  15538.3  1510.65
    6156.53  148084  15729.6  1522.55
    6161.6  149619  16009.9  1529.58
    6166.84  150565  16250.3  1525.72
    6172.1  152250  16554.8  1574.97
    6177.52  153723  16874.3  1651.35
    6182.95  154584  17140.8  1716.84
    6188.47  155987  17473.4  1771.45
    6194.08  157465  17811.1  1814.17
    6199.7  158869  18117.8  1859.01
    6205.5  160356  18421.6  1902.97
    6211.3  161645  18720.4  1954.04
    6217.2  163179  19076.3  2010.24
    6223.19  164425  19402.3  2036.54
    6229.2  165831  19758.2  2052.97
    6235.38  167245  20104.3  2062.51
    6241.56  167241  20259.4  2055.17
    6247.85  170340  20822.5  2114.95
    6254.23  172369  21275.7  2203.84
    6260.71  174006  21652  2301.85
    6267.2  175461  22020.3  2364.98
    6273.79  176927  22409.7  2415.22
    6280.48  178503  22791.1  2471.58
    6287.26  180139  23217.6  2529.05
    6294.06  182135  23704.1  2589.65
    6300.95  183866  24152.7  2659.36
    6307.95  185759  24638.4  2730.19
    6315.05  186839  25017.1  2782.13
    6322.16  188348  25456.8  2819.19
    6329.38  189784  25903.7  2863.37
    6336.69  191309  26375.5  2917.66
    6344.11  192684  26800.4  2979.07
    6351.55  193992  27252.4  3054.6
    6359.09  195291  27744.4  3136.24
    6366.65  196986  28274.5  3237.01
    6374.31  198620  28793.6  3325.88
    6382.07  200192  29319.8  3400.88
    6389.95  201612  29810.1  3470.99
    6397.84  202811  30271.4  3540.22
    6405.84  204395  30822.7  3616.57
    6413.95  206238  31428.1  3698.03
    6422.08  207949  32007.6  3787.61
    6430.32  208903  32478.1  3858.3
    6438.58  210462  33074.7  3932.12
    6446.95  211584  33613.3  4011.05
    6455.43  212955  34212  4113.1
    6463.93  214203  34784.7  4214.26
    6472.55  215528  35365.5  4305.54
    6481.28  216681  35931.4  4402.94
    6490.03  217639  36470.2  4494.45
    6498.9  218910  37076.2  4588.08
    6507.79  217874  37297.2  4634.83
    6516.8  219506  37989.2  4751.69
    6525.92  221969  38858.4  4896.68
    6535.07  223517  39559.5  5010.77
    6544.25  223061  39899.7  5078.98
    6553.54  224501  40610  5188.31
    6562.95  225910  41329.3  5301.77
    6572.4  227077  41999.7  5425.33
    6581.96  227785  42575.2  5527.01
    6591.55  228408  43133.7  5627.82
    6601.26  229570  43816.2  5753.73
    6611.09  229518  44293.8  5839.76
    6620.95  230768  45040.5  5965.91
    6630.85  232137  45807.2  6099.17
    6640.87  231746  46222  6189.56
    6650.92  233327  47057.8  6330.06
    6661.1  233903  47696.7  6452.67
    6671.31  234529  48348.6  6580.41
    6681.64  231336  48192.6  6582.26
    6692.01  231195  48693.6  6682.23
    6702.51  222014  47337.7  6526.31
    6713.04  238959  51462.9  7125.51
    6723.7  237107  51612.1  7183.83
    6734.4  235944  51950.3  7272.27
    6745.14  237082  52793.7  7424.82
    6756  231114  52005  7356.48
    6766.91  240820  54836.4  7797.27
    6777.94  241592  55611.9  7959.17
    6789.02  240067  55889.4  8038.19
    6800.23  238075  56060  8105.32
    6811.48  252672  60152.6  8752.58
    6822.77  246420  59350.4  8674.95
    6834.19  245756  59846.1  8792.42
    6845.66  245910  60551.9  8945.04
    6857.16  245828  61224.7  9091.76
    6868.81  244290  61531.6  9188.59
    6880.5  245416  62530.6  9381.54
    6892.33  246041  63405.7  9558.62
    6904.2  246085  64149.7  9727.8
    6916.11  246488  64972.8  9911.1
    6928.18  245843  65535  10057.5
    6940.28  246263  66409.2  10244.1
    6952.43  246070  67101.6  10405.7
    6964.62  246272  67923.9  10592.5
    6976.96  244342  68134.3  10676.4
    6989.35  244845  69037.7  10872.4
    7001.88  244727  69761.3  11043.5
    7014.47  245034  70622.8  11229.7
    7027.1  245256  71479.4  11423.1
    7039.77  245502  72340.1  11619.6
    7052.6  245910  73237.8  11824.2
    7065.48  245488  73912.6  11985.9
    7078.41  245686  74780.4  12196.7
    7091.39  245477  75532.3  12376.6
    7104.53  245437  76329.3  12573.7
    7111.06  245275  76685.5  12655.5