Folder: XASDataLibrary/data/Cr (part 11)

File: k2cro4_15K_002.xdi
# XDI/1.0
# Column.1: energy eV
# Column.2: i0
# Column.3: itrans
# Column.4: irefer
# Beamline.name: SSRL 2-3
# Beamline.notes: vert slits = 0.6mm
# Detector.I0: N2 15cm
# Detector.I1: N2 30cm
# Detector.I2: N2 15cm
# Element.edge: K
# Element.symbol: Cr
# Mono.d_spacing: 3.13550
# Mono.name: Si(111)
# Mono.notes: unfocused, detuned 75%, clockwise at E=5990eV
# Sample.formula: K2CrO4
# Sample.name: K2CrO4
# Sample.prep: powder on tape (4 layers)
# Sample.reference: Cr foil
# Sample.temperature: 15K
# Scan.start_time: 1997-04-18 11:01:58
# ///
#    Note: mono d_spacing is nominal!
#     exafs to K16
#     396  E XMU XMUR I0
#-------------
#   energy   i0   itrans  irefer
    5759.99  168036  3288.7   427.3
    5780.01  166921  3426.7   449.3
    5799.97  165585  3561.7   472.3
    5820  164293  3704.7   497.3
    5839.97  162890  3845.7   522.3
    5860.02  161584  3994.7   547.3
    5879.99  160183  4138.7   572.3
    5899.97  158681  4284.7   600.3
    5920.02  157235  4435.7   626.3
    5939.99  155764  4586.7   655.3
    5959.97  154445  4741.7   684.3
    5970.49  153469  4812.7   697.3
    5971.53  152815  4798.7   694.3
    5972.49  151278  4762.7   689.3
    5973.53  151843  4782.7   693.299
    5974.5  153658  4852.7   703.3
    5975.46  153536  4856.7   705.3
    5976.51  153582  4867.7   707.3
    5977.47  153346  4866.7   706.3
    5978.52  153227  4874.7   708.3
    5979.48  153261  4886.7   709.3
    5980.53  153220  4891.7   710.3
    5981.49  153303  4899.7   712.3
    5982.46  153195  4905.7   712.3
    5983.51  153396  4916.7   713.3
    5984.48  153362  4925.7   715.3
    5985.52  153344  4927.7   716.3
    5986.49  150146  4832.7   702.3
    5987.46  137769  4433.7   643.3
    5988.51  140084  4512.7   653.3
    5989.48  147103  4732.7   678.3
    5990.53  149841  4801.7   669.3
    5991.5  150346  4778.7   631.3
    5992.47  150672  4689.7   595.3
    5993.52  150757  4332.7   534.3
    5994.49  150866  3290.7   399.3
    5995.47  150818  2508.7   300.3
    5996.51  150805  3869.7   455.3
    5997.49  150620  4468.7   525.3
    5998.54  150555  4630.7   539.3
    5999.51  150423  4630.7   525.3
    6000.49  150141  4542.7   496.3
    6001.46  149145  4359.7   459.3
    6002.51  147826  4202.7   427.3
    6003.49  150227  4266.7   424.3
    6004.47  150422  4313.7   418.3
    6005.52  150263  4304.7   409.3
    6006.5  150034  4201.7   392.3
    6007.47  149973  4037.7   372.3
    6008.53  149999  3705.7   335.3
    6009.5  149796  3242.7   290.3
    6010.94  149790  2766.46   244.064
    6012.82  149553  2604.51   233.181
    6014.78  149614  2649.62   248.415
    6016.81  149486  2668.78   252.765
    6018.93  149660  2526   237.233
    6021.12  149727  2478.27   227.817
    6023.39  149883  2407.6   222.518
    6025.73  150271  2360.98   220.335
    6028.16  150345  2373.42   220.27
    6030.58  150645  2337.91   214.321
    6033.16  150923  2351.45   212.49
    6035.82  151285  2363.05   214.774
    6038.56  151807  2303.7   208.176
    6041.37  152187  2252.41   200.695
    6044.26  152741  2323.17   206.331
    6047.24  153338  2489.98   224.083
    6050.29  153801  2636.85   238.952
    6053.42  154561  2741.78   253.938
    6056.56  155310  2816.76   266.041
    6059.85  155791  2902.79   277.26
    6063.22  156187  3021.88   290.597
    6066.68  157027  3128.02   297.05
    6070.13  157890  3203.22   298.621
    6073.75  158792  3203.47   293.307
    6077.37  159857  3195.78   296.111
    6081.15  160829  3181.14   303.031
    6084.93  161817  3191.55   314.069
    6088.8  162826  3237.02   318.223
    6092.83  163837  3322.54   316.494
    6096.86  165175  3401.12   309.882
    6100.98  166309  3435.76   306.387
    6105.18  167537  3457.44   312.008
    6109.46  168670  3436.18   324.746
    6113.83  169782  3452.98   338.601
    6118.28  171317  3492.83   348.573
    6122.74  172677  3500.73   348.662
    6127.36  174060  3532.69   351.868
    6131.99  175479  3620.7   365.19
    6136.79  176893  3746.77   381.629
    6141.59  178142  3885.89   393.185
    6146.48  179710  3988.07   403.858
    6151.46  181229  4080.3   406.648
    6156.53  182603  4168.58   414.554
    6161.6  184259  4254.92   417.578
    6166.84  185847  4341.31   421.718
    6172.1  187285  4443.76   437.975
    6177.52  189096  4585.27   462.349
    6182.95  190127  4702.83   483.839
    6188.47  192037  4801.44   498.447
    6194.08  193752  4900.1   511.17
    6199.7  195463  4988.82   522.012
    6205.5  197405  5088.6   534.97
    6211.3  199292  5182.43   551.044
    6217.2  201092  5273.31   565.236
    6223.19  202940  5387.25   574.544
    6229.2  204796  5495.24   580.97
    6235.38  206044  5595.28   581.512
    6241.56  204511  5601.39   579.171
    6247.85  209895  5812.54   599.946
    6254.23  212006  5941.75   625.839
    6260.71  213924  6083.02   655.848
    6267.2  215539  6223.33   677.974
    6273.79  217358  6368.71   695.217
    6280.48  219557  6525.13   719.577
    6287.26  221514  6665.61   737.053
    6294.06  223429  6832.15   756.646
    6300.95  225420  7008.75   782.358
    6307.95  227379  7193.39   806.185
    6315.05  229408  7376.09   824.128
    6322.16  231004  7525.84   838.188
    6329.38  233328  7711.65   858.366
    6336.69  235206  7899.51   878.661
    6344.11  236732  8054.43   900.072
    6351.55  239089  8244.4   930.6
    6359.09  240770  8416.43   956.244
    6366.65  242735  8595.5   988.006
    6374.31  244627  8774.64  1017.88
    6382.07  246614  8976.83  1043.88
    6389.95  248780  9191.08  1075.99
    6397.84  250868  9397.37  1102.22
    6405.84  252671  9590.72  1131.57
    6413.95  254340  9790.13  1158.03
    6422.08  255852  9986.59  1191.61
    6430.32  257655  10206.1  1222.3
    6438.58  259340  10452.7  1251.12
    6446.95  260869  10680.3  1288.05
    6455.43  262630  10923  1324.09
    6463.93  264478  11190.7  1364.26
    6472.55  266134  11437.5  1404.54
    6481.28  267526  11681.3  1440.93
    6490.03  269294  11954.2  1484.45
    6498.9  271040  12224.2  1520.08
    6507.79  272660  12490.2  1559.83
    6516.8  273895  12740.2  1604.69
    6525.92  275336  13029.4  1648.67
    6535.07  277009  13320.5  1694.77
    6544.25  278083  13577.8  1736.99
    6553.54  279285  13829  1769.32
    6562.95  280089  14097.4  1809.77
    6572.4  281696  14395.8  1856.33
    6581.96  282837  14685.2  1903.01
    6591.55  284046  14970.7  1950.81
    6601.26  285335  15280.2  2002.73
    6611.09  286176  15560.8  2053.76
    6620.95  287446  15875.5  2101.91
    6630.85  288386  16174.2  2154.18
    6640.87  289210  16475  2204.56
    6650.92  289909  16785.8  2259.06
    6661.1  290862  17115.7  2316.68
    6671.31  291292  17418.6  2374.41
    6681.64  291760  17727.6  2432.26
    6692.01  291477  17992.6  2472.23
    6702.51  277460  17427.7  2412.31
    6713.04  300785  19168.9  2666.51
    6723.7  298004  19290.1  2693.83
    6734.4  296151  19491.3  2728.26
    6745.14  297564  19906.6  2796.82
    6756  292204  19891  2818.49
    6766.91  301381  20815.4  2964.27
    6777.94  302573  21230.9  3040.17
    6789.02  300731  21443.4  3088.19
    6800.23  296859  21508  3119.32
    6811.48  313320  23052.6  3361.58
    6822.77  305882  22893.3  3354.95
    6834.19  304804  23191.1  3414.43
    6845.66  304789  23567.9  3495.03
    6857.16  304511  23929.7  3564.75
    6868.81  304083  24291.6  3643.59
    6880.5  304341  24711.6  3721.54
    6892.33  304195  25118.6  3796.62
    6904.2  304206  25525.7  3883.8
    6916.11  304236  25963.8  3975.1
    6928.18  303258  26320  4042.52
    6940.28  303634  26799.2  4144.06
    6952.43  303732  27247.5  4231.72
    6964.62  303786  27687.9  4327.49
    6976.96  303757  28157.3  4417.37
    6989.35  303469  28588.7  4503.38
    7001.88  303253  29027.2  4618.5
    7014.47  303266  29494.8  4707.74
    7027.1  302702  29914.4  4808.1
    7039.77  302739  30403.1  4904.56
    7052.6  302587  30848.8  5003.15
    7065.48  302938  31368.6  5110.86
    7078.41  302030  31771.4  5205.68
    7091.39  301619  32234.3  5303.62
    7104.53  301213  32705.3  5419.67
    7111.06  300792  32918.5  5469.5

File: k2cro4_15K_003.xdi
# XDI/1.0
# Column.1: energy eV
# Column.2: i0
# Column.3: itrans
# Column.4: irefer
# Beamline.name: SSRL 2-3
# Beamline.notes: vert slits = 0.6mm
# Detector.I0: N2 15cm
# Detector.I1: N2 30cm
# Detector.I2: N2 15cm
# Element.edge: K
# Element.symbol: Cr
# Mono.d_spacing: 3.13550
# Mono.name: Si(111)
# Mono.notes: unfocused, detuned 75%, clockwise at E=5990eV
# Sample.formula: K2CrO4
# Sample.name: K2CrO4
# Sample.prep: powder on tape (4 layers)
# Sample.reference: Cr foil
# Sample.temperature: 15K
# Scan.start_time: 1997-04-18 11:01:58
# ///
#    Note: mono d_spacing is nominal!
#     exafs to K16
#     396  E XMU XMUR I0
#-------------
#   energy   i0   itrans  irefer
    5759.99  170962  3339.7   427.3
    5780.01  169659  3477.7   449.3
    5799.97  168303  3614.7   473.3
    5820  166851  3751.7   495.3
    5839.97  165711  3904.7   523.3
    5860.02  164380  4052.7   550.3
    5879.99  163055  4207.7   578.3
    5899.97  161514  4355.7   604.3
    5920.02  160154  4515.7   634.301
    5939.99  158561  4663.7   663.3
    5959.97  157194  4821.7   693.3
    5970.49  156176  4890.7   705.3
    5971.53  155723  4888.7   706.3
    5972.49  153714  4831.7   697.3
    5973.53  154758  4870.7   703.3
    5974.5  156256  4927.7   713.3
    5975.46  156324  4939.7   715.3
    5976.51  156214  4945.7   716.3
    5977.47  156146  4951.7   715.3
    5978.52  156116  4955.7   716.299
    5979.48  156038  4964.7   717.3
    5980.53  156161  4977.7   719.3
    5981.49  155834  4976.7   719.3
    5982.46  156073  4990.7   722.3
    5983.51  156001  4995.7   722.3
    5984.48  156211  5007.7   726.3
    5985.52  155991  5010.7   725.3
    5986.49  152732  4913.7   712.3
    5987.46  139798  4496.7   651.3
    5988.51  142924  4594.7   664.3
    5989.48  149908  4817.7   691.3
    5990.53  152538  4884.7   679.3
    5991.5  153222  4867.7   640.3
    5992.47  153399  4766.7   604.3
    5993.52  153616  4399.7   541.3
    5994.49  153452  3317.7   401.3
    5995.47  153662  2561.7   307.3
    5996.51  153516  3959.7   466.3
    5997.49  153565  4556.7   534.3
    5998.54  153233  4708.7   547.3
    5999.51  153138  4709.7   532.3
    6000.49  152848  4616.7   502.3
    6001.46  151687  4427.7   463.3
    6002.51  150615  4275.7   431.3
    6003.49  152841  4338.7   427.3
    6004.47  153213  4388.7   423.3
    6005.52  152783  4368.7   411.3
    6006.5  152765  4265.7   395.3
    6007.47  152638  4094.7   375.3
    6008.53  152608  3752.7   337.3
    6009.5  152423  3281.7   289.3
    6010.94  152306  2803.46   241.064
    6012.82  152233  2643.51   232.181
    6014.78  152132  2691.62   246.415
    6016.81  152228  2706.78   254.765
    6018.93  152252  2560   236.233
    6021.12  152401  2517.27   226.817
    6023.39  152557  2442.6   219.518
    6025.73  152827  2394.98   218.335
    6028.16  153149  2409.42   217.27
    6030.58  153188  2370.9   212.321
    6033.16  153570  2386.45   213.49
    6035.82  153911  2399.05   212.774
    6038.56  154272  2334.7   207.176
    6041.37  154850  2285.41   199.695
    6044.26  155347  2356.17   206.331
    6047.24  155824  2523.98   224.083
    6050.29  156646  2678.86   239.952
    6053.42  157242  2785.78   253.938
    6056.56  157840  2857.76   267.041
    6059.85  158519  2953.79   280.26
    6063.22  159066  3074.88   294.597
    6066.68  159616  3175.02   300.05
    6070.13  160584  3252.22   301.621
    6073.75  161465  3253.47   294.307
    6077.37  162359  3241.78   299.111
    6081.15  163323  3226.14   306.031
    6084.93  164507  3239.55   317.069
    6088.8  165534  3285.02   322.223
    6092.83  166595  3374.54   319.494
    6096.86  167605  3449.12   311.882
    6100.98  169065  3489.76   308.387
    6105.18  170197  3508.44   315.008
    6109.46  171556  3493.18   328.746
    6113.83  172680  3508.98   343.601
    6118.28  174035  3545.83   351.573
    6122.74  175595  3557.73   350.662
    6127.36  176963  3585.69   353.868
    6131.99  178495  3679.7   367.19
    6136.79  179928  3808.77   385.629
    6141.59  181316  3950.89   400.185
    6146.48  183021  4055.07   407.858
    6151.46  184487  4146.3   412.648
    6156.53  185929  4243.58   420.554
    6161.6  187556  4328.92   423.578
    6166.84  188962  4413.32   424.718
    6172.1  190724  4524.76   439.975
    6177.52  192270  4658.27   464.349
    6182.95  193993  4794.83   489.839
    6188.47  195801  4890.43   501.447
    6194.08  197528  4991.1   515.17
    6199.7  199275  5078.82   529.012
    6205.5  201010  5175.6   545.97
    6211.3  202937  5273.42   560.044
    6217.2  204936  5365.31   575.236
    6223.19  206781  5482.25   582.544
    6229.2  208829  5600.24   590.97
    6235.38  210133  5700.28   595.512
    6241.56  208580  5711.38   593.171
    6247.85  214333  5933.54   615.946
    6254.23  216268  6064.75   642.839
    6260.71  218528  6215.01   676.848
    6267.2  220404  6367.33   697.974
    6273.79  222341  6517.71   717.218
    6280.48  224230  6668.14   737.577
    6287.26  226350  6816.61   756.053
    6294.06  228338  6990.15   777.646
    6300.95  230133  7163.74   804.357
    6307.95  232279  7357.39   831.185
    6315.05  234279  7535.09   855.128
    6322.16  236334  7693.84   870.188
    6329.38  238629  7883.65   889.366
    6336.69  240669  8086.51   909.661
    6344.11  242821  8271.43   936.072
    6351.55  244671  8450.4   963.6
    6359.09  246466  8623.43   992.244
    6366.65  248376  8796.51  1023.01
    6374.31  250492  8988.64  1050.88
    6382.07  252489  9199.83  1077.88
    6389.95  253991  9392.07  1104.99
    6397.84  256051  9601.37  1134.22
    6405.84  257817  9798.72  1158.57
    6413.95  259838  10019.1  1187.03
    6422.08  261520  10221.6  1219.61
    6430.32  263380  10449.1  1256.3
    6438.58  265068  10694.7  1289.12
    6446.95  266788  10940.3  1320.05
    6455.43  268474  11184  1360.09
    6463.93  270229  11437.7  1402.26
    6472.55  271965  11699.5  1440.54
    6481.28  273722  11963.3  1479.93
    6490.03  275257  12225.2  1520.45
    6498.9  276978  12502.2  1564.08
    6507.79  278994  12790.2  1601.83
    6516.8  280041  13042.3  1647.69
    6525.92  281934  13349.4  1699.67
    6535.07  283440  13625.5  1742.77
    6544.25  284671  13895.8  1781.98
    6553.54  285652  14154  1818.32
    6562.95  286854  14439.4  1863.77
    6572.4  288355  14737.8  1918.33
    6581.96  289432  15032.2  1972.01
    6591.55  290651  15323.7  2014.81
    6601.26  291757  15623.2  2066.73
    6611.09  293138  15947.8  2115.76
    6620.95  294295  16260.5  2168.91
    6630.85  295363  16576.2  2223.18
    6640.87  295860  16867  2272.56
    6650.92  296834  17191.8  2331.06
    6661.1  297507  17508.7  2388.68
    6671.31  298414  17842.6  2443.41
    6681.64  298870  18159.6  2498.26
    6692.01  298255  18409.6  2543.23
    6702.51  284215  17855.7  2482.31
    6713.04  307589  19601.9  2736.51
    6723.7  305281  19772.1  2777.83
    6734.4  302953  19951.3  2818.26
    6745.14  304792  20393.6  2896.81
    6756  299416  20373  2912.48
    6766.91  308673  21318.4  3063.27
    6777.94  309553  21719.9  3137.17
    6789.02  307825  21962.4  3193.19
    6800.23  303619  22004  3215.33
    6811.48  320922  23613.6  3464.58
    6822.77  313515  23460.3  3458.94
    6834.19  311911  23727.1  3517.43
    6845.66  311858  24116.9  3591.04
    6857.16  311538  24481.7  3664.75
    6868.81  311288  24873.7  3744.59
    6880.5  311669  25309.6  3823.54
    6892.33  311306  25714.6  3909.61
    6904.2  311590  26169.7  3998.8
    6916.11  311393  26580.8  4083.1
    6928.18  310633  26960  4161.52
    6940.28  310771  27422.2  4255.06
    6952.43  310441  27864.5  4346.72
    6964.62  310541  28308.9  4436.49
    6976.96  310519  28781.3  4528.38
    6989.35  310408  29235.7  4629.38
    7001.88  310108  29676.2  4724.5
    7014.47  310007  30149.8  4818.74
    7027.1  309832  30605.4  4924.09
    7039.77  309416  31053.1  5023.57
    7052.6  309283  31529.8  5126.15
    7065.48  309568  32048.6  5233.86
    7078.41  309095  32503.4  5343.69
    7091.39  309044  33011.3  5457.62
    7104.53  308644  33489.3  5578.68
    7111.06  308405  33740.5  5632.5

File: k2cro4_rt_001.xdi
# XDI/1.0
# Column.1: energy eV
# Column.2: i0
# Column.3: itrans
# Column.4: irefer
# Beamline.name: SSRL 2-3
# Beamline.notes: vert slits = 0.6mm
# Detector.I0: N2 15cm
# Detector.I1: N2 30cm
# Detector.I2: N2 15cm
# Element.edge: K
# Element.symbol: Cr
# Mono.d_spacing: 3.13550
# Mono.name: Si(111)
# Mono.notes: unfocused, detuned 75%, clockwise at E=5990eV
# Sample.formula: K2CrO4
# Sample.name: K2CrO4
# Sample.prep: powder on tape (5 layers)
# Sample.reference: Cr foil
# Sample.temperature: room temperature
# Scan.start_time: 1997-04-17 22:36:29
# ///
#    Note: mono d_spacing is nominal!
#     exafs to K16
#     396  E XMU XMUR I0
#-------------
#   energy   i0   itrans  irefer
    5759.99  25392.9  7338.5   934.7
    5780.01  25345.9  7651.5   987.7
    5799.97  25263.9  7967.5  1042.7
    5820  25203.9  8294.5  1097.7
    5839.97  25140.9  8635.5  1155.7
    5860.02  25061.9  8976.5  1213.7
    5879.99  24978.9  9322.5  1276.7
    5899.97  24876.9  9675.5  1339.7
    5920.02  24769.9  10030.5  1404.7
    5939.99  24669.9  10386.5  1471.7
    5959.97  24583.9  10749.5  1538.7
    5970.49  24510.9  10931.5  1574.7
    5971.53  24319.9  10852.5  1560.7
    5972.49  24172.9  10813.5  1557.7
    5973.53  24450.9  10960.5  1577.7
    5974.5  24584.9  11036.5  1590.7
    5975.46  24565.9  11048.5  1591.7
    5976.51  24599.9  11078.5  1597.7
    5977.47  24583.9  11088.5  1598.7
    5978.52  24628.9  11121.5  1603.7
    5979.48  24619.9  11141.5  1607.7
    5980.53  24652.9  11175.5  1611.7
    5981.49  24645.9  11186.5  1612.7
    5982.46  24640.9  11201.5  1614.7
    5983.51  24641.9  11219.5  1616.7
    5984.48  24683.9  11252.5  1620.7
    5985.52  24483.9  11168.5  1608.7
    5986.49  23528.9  10738.5  1547.7
    5987.46  21310.9  9736.5  1397.7
    5988.51  23275.9  10623.5  1517.7
    5989.48  23982.9  10927.5  1543.7
    5990.53  24275.9  11008.5  1484.7
    5991.5  24345.9  10922.5  1403.7
    5992.47  24383.9  10587.5  1313.7
    5993.52  24393.9  9342.5  1126.7
    5994.49  24423.9  6444.5   760.7
    5995.47  24410.9  7013.5   816.7
    5996.51  24440.9  9827.5  1141.7
    5997.49  24405.9  10517.5  1221.7
    5998.54  24425.9  10704.5  1221.7
    5999.51  24386.9  10606.5  1169.7
    6000.49  24353.9  10343.5  1097.7
    6001.46  24080.9  9916.5  1012.7
    6002.51  24110.9  9766.5   966.7
    6003.49  24347.9  9917.5   957.7
    6004.47  24394.9  9968.5   944.7
    6005.52  24358.9  9834.5   913.7
    6006.5  24372.9  9566.5   874.7
    6007.47  24354.9  9072.5   813.7
    6008.53  24368.9  8173.5   718.7
    6009.5  24351.9  7304.5   630.7
    6010.94  24356.7  6557.26   556.465
    6012.82  24343.8  6319.3   550.581
    6014.78  24362  6399.38   584.812
    6016.81  24347.3  6310.5   582.16
    6018.93  24391.7  6055.68   547.624
    6021.12  24414.2  5938.88   529.203
    6023.39  24476.8  5752.13   516.897
    6025.73  24576.6  5768.43   522.708
    6028.16  24622.4  5774.76   514.635
    6030.58  24700.3  5751.13   506.678
    6033.16  24760.4  5749.55   502.837
    6035.82  24856.5  5698.01   498.111
    6038.56  24920.8  5554.51   484.501
    6041.37  25031.1  5538.05   480.008
    6044.26  25132.6  5774.64   501.63
    6047.24  25246.1  6172.27   541.368
    6050.29  25395.8  6457.93   573.221
    6053.42  25506.5  6703.64   607.191
    6056.56  25637.4  6900.39   638.277
    6059.85  25764.4  7119.19   667.478
    6063.22  25838.4  7325.02   691.795
    6066.68  25998.6  7530.9   703.229
    6070.13  26159.9  7654.81   698.777
    6073.75  26337.3  7716.78   690.442
    6077.37  26522.8  7751.78   707.222
    6081.15  26708.4  7792.82   734.119
    6084.93  26907.1  7871.9   761.131
    6088.8  27114.9  7982.03   773.26
    6092.83  27325.8  8112.2   756.503
    6096.86  27520.8  8202.41   734.864
    6100.98  27778.9  8282.66   723.339
    6105.18  28027.1  8346.96   741.931
    6109.46  28243.4  8402.29   781.638
    6113.83  28437.8  8462.67   819.461
    6118.28  28707.4  8529.09   837.401
    6122.74  28974  8605.56   840.457
    6127.36  29245.7  8746.06   855.627
    6131.99  29498.6  8942.6   884.914
    6136.79  29769.5  9189.18   917.315
    6141.59  30051.6  9446.81   942.835
    6146.48  30363.7  9717.49   964.471
    6151.46  30663  9976.19   981.219
    6156.53  30987.3  10233.9  1000.09
    6161.6  31275.8  10474.7  1010.07
    6166.84  31607.3  10742.6  1017.17
    6172.1  31931  11014.5  1060.38
    6177.52  32269.8  11290.4  1117.71
    6182.95  32598.7  11549.3  1168.15
    6188.47  32964.6  11821.3  1205.71
    6194.08  33329.7  12076.4  1238.39
    6199.7  33665.9  12321.5  1272.19
    6205.5  34000.2  12552.6  1307.09
    6211.3  34379.6  12818.8  1349.12
    6217.2  34796.1  13092  1389.26
    6223.19  35175.7  13361.2  1410.52
    6229.2  35578.4  13636.5  1423.89
    6235.38  35793.2  13850.9  1428.38
    6241.56  35467.1  13866.3  1415.98
    6247.85  36677.1  14491.7  1479.7
    6254.23  37126.2  14841.1  1553.54
    6260.71  37536.5  15195.6  1628.49
    6267.2  37987.8  15572.2  1682.55
    6273.79  38411.2  15961.8  1730.74
    6280.48  38841.8  16367.4  1787.04
    6287.26  39267.4  16792.1  1840.45
    6294.06  39739.1  17235.8  1897.98
    6300.95  40155  17669.5  1960.63
    6307.95  40608.9  18132.3  2024.39
    6315.05  41033  18571.2  2074.27
    6322.16  41468.1  19029.1  2121.26
    6329.38  41956.4  19516  2166.37
    6336.69  42425.8  19997.9  2223.6
    6344.11  42899.2  20485  2291.94
    6351.55  43355.8  20969  2366.4
    6359.09  43835.5  21464.1  2444.97
    6366.65  44320.3  21973.2  2530.66
    6374.31  44764.1  22482.4  2607.47
    6382.07  45244.1  23004.6  2679.39
    6389.95  45673.2  23520.9  2752.43
    6397.84  46193.4  24101.2  2834.58
    6405.84  46658.7  24656.5  2904.85
    6413.95  47150.1  25245.9  2987.23
    6422.08  47622.6  25855.3  3077.73
    6430.32  48089.2  26484.8  3165.35
    6438.58  48560.9  27118.3  3245.08
    6446.95  49051.7  27796.8  3338.93
    6455.43  49500.7  28471.4  3443.89
    6463.93  50026.7  29208  3559.97
    6472.55  50471.8  29903.7  3665.17
    6481.28  50957  30643.4  3778.48
    6490.03  51441.4  31404.2  3895.91
    6498.9  51927.8  32176  4003.45
    6507.79  52409.4  32950.8  4118.11
    6516.8  52860  33720.7  4244.89
    6525.92  53386.8  34565.6  4377.78
    6535.07  53862.6  35376.6  4510.78
    6544.25  54286.6  36161.6  4629.9
    6553.54  54666.6  36922.7  4739.14
    6562.95  55130.8  37764.7  4870.5
    6572.4  55643.1  38663.9  5012.97
    6581.96  56059.4  39510.1  5151.55
    6591.55  56573.9  40427.3  5298.26
    6601.26  57025.5  41325.5  5447.07
    6611.09  57486.2  42263.8  5600
    6620.95  57976  43227.2  5755.06
    6630.85  58423.8  44195.5  5917.22
    6640.87  58854.8  45169  6084.5
    6650.92  59240.9  46120.4  6243.9
    6661.1  59707.1  47175.9  6430.41
    6671.31  60106.4  48182.5  6597.04
    6681.64  60488.8  49210.1  6764.79
    6692.01  60739.4  50157.7  6924.64
    6702.51  57784  48325.4  6702.62
    6713.04  62549.7  53187.1  7411.71
    6723.7  62469.5  53901.9  7554.92
    6734.4  62519.4  54750.7  7706.24
    6745.14  63018.5  56002.5  7928.69
    6756  62328.6  56224.4  8007.24
    6766.91  63988.9  58566.3  8386.91
    6777.94  64527.2  59946.3  8622.7
    6789.02  64563.6  60854.3  8809.6
    6800.23  64266.2  61472.4  8946.62
    6811.48  66898.8  64947.4  9504.76
    6822.77  66305.6  65316.6  9602
    6834.19  66470.5  66449.8  9824.37
    6845.66  66791.4  67776  10059.9
    6857.16  67078.5  69101.2  10316.5
    6868.81  67267.7  70354.5  10561.2
    6880.5  67576.9  71769.9  10819
    6892.33  67852.3  73150.3  11092.9
    6904.2  68098.8  74537.7  11369
    6916.11  68319.4  75935.2  11646.2
    6928.18  68453.1  77244.7  11915.5
    6940.28  68777.9  78791.2  12221.9
    6952.43  68969.8  80239.8  12514.4
    6964.62  69224.8  81745.4  12811.1
    6976.96  69566.9  83387.1  13132.8
    6989.35  69740.1  84793.8  13420.7
    7001.88  69861.4  86204.6  13718.7
    7014.47  70101.8  87783.4  14032.8
    7027.1  70283.3  89306.2  14348
    7039.77  70445  90825.1  14659.3
    7052.6  70643.7  92396.1  14998.8
    7065.48  70829.5  93982  15330.4
    7078.41  70986.5  95553  15672
    7091.39  71135.5  97150.1  16021.8
    7104.53  71169.6  98609.2  16340.8
    7111.06  71187.5  99344.5  16507.5