Folder: XASDataLibrary/data/Cr (part 2)

File: cr2o3_100K_004.xdi
# XDI/1.0
# Column.1: energy eV
# Column.2: i0
# Column.3: itrans
# Column.4: irefer
# Beamline.name: SSRL 2-3
# Beamline.notes: vert slits = 0.6mm
# Detector.I0: N2 15cm
# Detector.I1: N2 30cm
# Detector.I2: N2 15cm
# Element.edge: K
# Element.symbol: Cr
# Mono.d_spacing: 3.13550
# Mono.name: Si(111)
# Mono.notes: unfocused, detuned 75%, clockwise at E=5990eV
# Sample.formula: Cr2O3
# Sample.name: Cr2O3
# Sample.prep: powder on tape (4 layers)
# Sample.reference: Cr foil
# Sample.temperature: 100K
# Scan.start_time: 1997-04-18 21:40:35
# ///
#    Note: mono d_spacing is nominal!
#     exafs to K16
#     396  E XMU XMUR I0
#-------------
#   energy   i0   itrans  irefer
    5759.99  212405  11051.7  1410.3
    5780.01  211915  11462.7  1480.3
    5799.97  211571  11897.7  1553.3
    5820  211225  12339.7  1634.3
    5839.97  211171  12806.7  1717.3
    5860.02  210831  13276.7  1805.3
    5879.99  210387  13745.7  1887.3
    5899.97  209831  14216.7  1976.3
    5920.02  209367  14701.7  2069.3
    5939.99  208694  15171.7  2158.3
    5959.97  208076  15628.7  2248.3
    5970.49  207409  15838.7  2290.3
    5971.53  205865  15736.7  2275.3
    5972.49  204161  15627.7  2259.3
    5973.53  207531  15907.7  2302.3
    5974.5  208014  15961.7  2311.3
    5975.46  208175  15988.7  2317.3
    5976.51  208063  16006.7  2319.3
    5977.47  208047  16024.7  2324.3
    5978.52  208248  16058.7  2328.3
    5979.48  208123  16070.7  2330.3
    5980.53  208248  16101.7  2335.3
    5981.49  208243  16112.7  2336.3
    5982.46  208650  16152.7  2342.3
    5983.51  208565  16164.7  2342.3
    5984.48  208500  16166.7  2341.3
    5985.52  206061  15983.7  2313.3
    5986.49  192355  14932.7  2158.3
    5987.46  182327  14142.7  2038.3
    5988.51  198656  15389.7  2206.3
    5989.48  203951  15751.7  2219.3
    5990.53  205520  15647.7  2088.3
    5991.5  205956  15197.7  1940.3
    5992.47  206077  15227.7  1883.3
    5993.52  206622  15032.7  1809.3
    5994.49  206445  14424.7  1703.3
    5995.47  206587  14140.7  1653.3
    5996.51  206546  14225.7  1663.3
    5997.49  206519  14154.7  1648.3
    5998.54  206329  13793.7  1572.3
    5999.51  206055  12766.7  1403.3
    6000.49  205581  10868.7  1149.3
    6001.46  202778  8450.7   865.3
    6002.51  204525  6679.7   664.3
    6003.49  205866  6110.7   596.3
    6004.47  206188  5568.7   533.3
    6005.52  206023  4530.7   427.3
    6006.5  206141  3746.7   348.3
    6007.47  205960  2899.7   266.3
    6008.53  205918  2225.7   202.3
    6009.5  205213  2182.7   195.3
    6010.94  205259  2263.46   199.064
    6012.82  205294  1914.51   175.181
    6014.78  205272  2333.62   221.415
    6016.81  205647  2901.78   273.765
    6018.93  205795  3249   300.233
    6021.12  206276  3562.27   321.817
    6023.39  206605  3355.6   307.518
    6025.73  207005  3145.98   289.335
    6028.16  207731  3321.41   302.27
    6030.58  208120  3909.91   350.321
    6033.16  208937  4484.45   397.49
    6035.82  209444  4880.05   430.774
    6038.56  210466  5224.7   458.176
    6041.37  211108  5336.41   463.695
    6044.26  211967  5269.17   461.331
    6047.24  213114  5239.99   462.083
    6050.29  214377  5235.85   466.952
    6053.42  215675  4946.78   451.938
    6056.56  216718  4661.76   435.041
    6059.85  217693  4434.79   420.26
    6063.22  218448  4178.88   398.597
    6066.68  220022  4047.02   380.05
    6070.13  221437  4035.22   372.621
    6073.75  223081  4095.47   370.307
    6077.37  224747  4283.78   395.111
    6081.15  226417  4440.14   420.031
    6084.93  228021  4695.55   458.069
    6088.8  229795  4976.02   485.223
    6092.83  231694  5262.54   494.494
    6096.86  233766  5498.12   492.882
    6100.98  235657  5495.75   480.387
    6105.18  238130  5557.44   498.008
    6109.46  240654  5751.18   535.746
    6113.83  242895  5947.98   577.601
    6118.28  244969  6019.83   591.573
    6122.74  247236  6104.73   594.662
    6127.36  249744  6272.69   611.868
    6131.99  251762  6388.7   634.19
    6136.79  254418  6403.77   639.629
    6141.59  256878  6377.89   636.185
    6146.48  259479  6406.07   634.858
    6151.46  262289  6565.3   644.648
    6156.53  265239  6803.59   665.554
    6161.6  268045  6771.92   652.578
    6166.84  270868  6792.32   643.718
    6172.1  273627  7029.77   676.975
    6177.52  276517  7456.26   739.349
    6182.95  279576  7620.82   769.839
    6188.47  282693  7770.43   788.447
    6194.08  286039  8004.1   818.17
    6199.7  289627  8463.82   872.012
    6205.5  292402  8979.6   929.97
    6211.3  296060  9235.43   969.044
    6217.2  299607  9365.3   990.236
    6223.19  303189  9328.25   978.544
    6229.2  307232  9307.24   966.971
    6235.38  307862  9401.29   959.512
    6241.56  306599  9575.39   969.171
    6247.85  317081  10078.5  1025.95
    6254.23  321383  10452.7  1090.84
    6260.71  324882  10651  1135.85
    6267.2  328533  10785.3  1157.97
    6273.79  332532  11142.7  1202.22
    6280.48  336313  11575.1  1260.58
    6287.26  340070  11922.6  1299.05
    6294.06  344302  12171.2  1329.65
    6300.95  348329  12432.7  1373.36
    6307.95  352098  12556.4  1395.18
    6315.05  356214  12887.1  1431.13
    6322.16  360502  13352.8  1477.19
    6329.38  364136  13873.7  1531.37
    6336.69  368283  14414.5  1595.66
    6344.11  372159  14802.4  1650.07
    6351.55  376469  15049.4  1694.6
    6359.09  380764  15323.4  1737.24
    6366.65  385830  15681.5  1799.01
    6374.31  389258  15997.6  1850.88
    6382.07  393818  16558.8  1922.88
    6389.95  397713  16958.1  1978.99
    6397.84  402006  17232.4  2021.22
    6405.84  406011  17647.7  2074.57
    6413.95  410382  18140.1  2140.03
    6422.08  414486  18557.6  2206.61
    6430.32  419232  19108.1  2276.3
    6438.58  423480  19571.7  2334.12
    6446.95  428595  20031.3  2399.05
    6455.43  432919  20739  2501.09
    6463.93  437651  21508.7  2612.26
    6472.55  442013  22134.5  2699.54
    6481.28  446908  22681.3  2780.94
    6490.03  451444  23218.2  2868.45
    6498.9  456139  23669.2  2935.08
    6507.79  460842  24237.2  3020.83
    6516.8  464828  24764.3  3108.69
    6525.92  469450  25208.4  3183.67
    6535.07  474376  25868.5  3282.77
    6544.25  478970  26617.8  3393.98
    6553.54  482726  27360  3499.32
    6562.95  486598  28156.4  3614.77
    6572.4  490969  29060.8  3752.33
    6581.96  495348  29735.2  3863.01
    6591.55  499507  30308.7  3966.82
    6601.26  504867  30872.2  4060.73
    6611.09  508631  31436.9  4156.76
    6620.95  513654  32385.5  4305.91
    6630.85  518251  33202.2  4438.18
    6640.87  522503  34047  4575.56
    6650.92  525782  34874.8  4710.06
    6661.1  529780  35778.7  4858.67
    6671.31  533969  36620.6  5002.41
    6681.64  538504  37462.6  5141.26
    6692.01  541112  38156.6  5259.23
    6702.51  515478  36774.7  5094.31
    6713.04  556239  40303.9  5610.51
    6723.7  557636  40970.1  5731.83
    6734.4  559198  41755.3  5878.26
    6745.14  564105  42774.6  6049.82
    6756  565055  43544  6190.48
    6766.91  572187  44814.4  6412.27
    6777.94  578443  46088.9  6628.17
    6789.02  580520  46933.4  6789.19
    6800.23  579017  47480  6902.32
    6811.48  598290  49890.6  7291.57
    6822.77  596584  50645.3  7436.94
    6834.19  598576  51638.1  7624.43
    6845.66  601586  52780.9  7829.04
    6857.16  605812  53988.7  8047.76
    6868.81  609313  55191.6  8268.59
    6880.5  612425  56247.6  8472.54
    6892.33  616161  57407.6  8698.61
    6904.2  619011  58554.7  8921.8
    6916.11  622001  59816.8  9155.11
    6928.18  624669  61061  9396.52
    6940.28  628452  62396.3  9651.07
    6952.43  630085  63611.6  9892.72
    6964.62  633235  65016.9  10162.5
    6976.96  634113  66185.3  10394.4
    6989.35  637622  67570.7  10672.4
    7001.88  640455  68930.2  10944.5
    7014.47  643699  70267.8  11216.7
    7027.1  646155  71552.4  11487.1
    7039.77  648936  72961.1  11764.6
    7052.6  652679  74506.8  12081.1
    7065.48  655010  75993.6  12389.9
    7078.41  657719  77569.4  12715.7
    7091.39  660234  79149.3  13032.6
    7104.53  661392  80411.2  13320.7
    7111.06  661918  81064.5  13457.5

File: cr2o3_rt_001.xdi
# XDI/1.0
# Column.1: energy eV
# Column.2: i0
# Column.3: itrans
# Column.4: irefer
# Beamline.name: SSRL 2-3
# Beamline.notes: vert slits = 0.6mm
# Detector.I0: N2 15cm
# Detector.I1: N2 30cm
# Detector.I2: N2 15cm
# Element.edge: K
# Element.symbol: Cr
# Mono.d_spacing: 3.13550
# Mono.name: Si(111)
# Mono.notes: unfocused, detuned 75%, clockwise at E=5990eV
# Sample.formula: Cr2O3
# Sample.name: Cr2O3
# Sample.prep: powder on tape (5 layers)
# Sample.reference: Cr foil
# Sample.temperature: room temp
# Scan.start_time: 1997-04-17 17:30:13
# ///
#    Note: mono d_spacing is nominal!
#     exafs to K16
#     396  E XMU XMUR I0
#-------------
#   energy   i0   itrans  irefer
    5759.99  26429.9  9177.5  1164.7
    5780.01  26366.9  9561.5  1229.7
    5799.97  26280.9  9943.5  1294.7
    5820  26205.9  10342.5  1361.7
    5839.97  26102.9  10749.5  1431.7
    5860.02  25980.9  11157.5  1502.7
    5879.99  25893.9  11578.5  1580.7
    5899.97  25779.9  12003.5  1659.7
    5920.02  25663.9  12433.5  1738.7
    5939.99  25544.9  12860.5  1818.7
    5959.97  25418.9  13288.5  1900.7
    5970.49  25313.9  13492.5  1943.7
    5971.53  25268.9  13483.5  1940.7
    5972.49  25002.9  13365.5  1923.7
    5973.53  25047.9  13407.5  1931.7
    5974.5  25296.9  13562.5  1954.7
    5975.46  25352.9  13620.5  1966.7
    5976.51  25321.9  13631.5  1966.7
    5977.47  25343.9  13659.5  1972.7
    5978.52  25326.9  13669.5  1974.7
    5979.48  25340.9  13704.5  1979.7
    5980.53  25327.9  13719.5  1979.7
    5981.49  25345.9  13748.5  1986.7
    5982.46  25352.9  13773.5  1990.7
    5983.51  25376.9  13804.5  1994.7
    5984.48  25389.9  13825.5  1996.7
    5985.52  25356.9  13835.5  1996.7
    5986.49  24883.9  13589.5  1961.7
    5987.46  22715.9  12419.5  1789.7
    5988.51  23097.9  12646.5  1816.7
    5989.48  24412.9  13367.5  1906.7
    5990.53  24909.9  13616.5  1895.7
    5991.5  25017.9  13574.5  1787.7
    5992.47  25070.9  13427.5  1697.7
    5993.52  25078.9  13507.5  1655.7
    5994.49  25111.9  13390.5  1600.7
    5995.47  25090.9  13156.5  1544.7
    5996.51  25111.9  13098.5  1528.7
    5997.49  25093.9  13132.5  1533.7
    5998.54  25101.9  13089.5  1518.7
    5999.51  25075.9  12875.5  1453.7
    6000.49  25072.9  12324.5  1339.7
    6001.46  24905.9  11242.5  1173.7
    6002.51  24709.9  9890.5   998.7
    6003.49  24923.9  9108.5   896.7
    6004.47  25082.9  8810.5   848.7
    6005.52  25040.9  8210.5   774.7
    6006.5  25057.9  7460.5   691.7
    6007.47  24996.9  6762.5   617.7
    6008.53  25025.9  5868.5   527.7
    6009.5  24989.9  5391.5   472.7
    6010.94  25004.7  5482.25   468.465
    6012.82  25001.8  5119.3   443.581
    6014.78  25036  5229.38   476.812
    6016.81  25051.3  6080.51   563.16
    6018.93  25082.7  6475.67   590.624
    6021.12  25103.2  6882.88   613.203
    6023.39  25149.8  6873.13   613.897
    6025.73  25211.6  6636.42   600.708
    6028.16  25255.4  6701.76   599.635
    6030.58  25339.3  7234.13   638.678
    6033.16  25404.4  7817.55   684.837
    6035.82  25491.5  8224.01   719.112
    6038.56  25578.8  8571.51   746.501
    6041.37  25660.1  8758.05   754.008
    6044.26  25767.6  8782.64   762.63
    6047.24  25867.1  8753.27   766.368
    6050.29  26005.8  8813.93   781.221
    6053.42  26133.5  8666.64   784.191
    6056.56  26257.4  8430.4   781.277
    6059.85  26413.4  8296.19   780.478
    6063.22  26465.4  8092.02   766.795
    6066.68  26616.6  7995.9   752.229
    6070.13  26786.9  8031.82   737.778
    6073.75  26956.3  8119.78   731.442
    6077.37  27147.8  8342.78   761.222
    6081.15  27340.4  8557.82   804.119
    6084.93  27545.1  8848.9   856.13
    6088.8  27743.9  9175.03   893.259
    6092.83  27952.8  9498.2   891.503
    6096.86  28205.8  9801.42   879.865
    6100.98  28406.9  9899.66   861.339
    6105.18  28665.1  10025   884.931
    6109.46  28903.4  10238.3   943.638
    6113.83  29184.8  10504.7  1011.46
    6118.28  29449.4  10688.1  1044.4
    6122.74  29688  10835.6  1054.46
    6127.36  29962.7  11069.1  1077.63
    6131.99  30226.6  11275.6  1111.91
    6136.79  30546.5  11438.2  1140.32
    6141.59  30826.6  11544.8  1150.83
    6146.48  31112.7  11661.5  1155.47
    6151.46  31412  11871.2  1163.22
    6156.53  31732.3  12183.9  1189.09
    6161.6  32025.8  12301.7  1185.07
    6166.84  32390.3  12463.6  1179.17
    6172.1  32689  12762.5  1222.38
    6177.52  33057.8  13261.4  1304.71
    6182.95  33380.7  13558.3  1365.15
    6188.47  33743.6  13850.3  1408.72
    6194.08  34065.7  14182.4  1450.39
    6199.7  34356.9  14650.5  1510.19
    6205.5  34731.2  15209.6  1578.09
    6211.3  35091.6  15579.8  1636.12
    6217.2  35480.1  15878  1682.26
    6223.19  35873.7  16047.2  1691.52
    6229.2  36269.4  16221.5  1692.89
    6235.38  36598.2  16512.9  1699.38
    6241.56  36350.1  16661.3  1695.98
    6247.85  37282.1  17335.7  1765.7
    6254.23  37812.2  17844.1  1857.54
    6260.71  38221.5  18221.6  1948.49
    6267.2  38627.8  18573.2  2002.56
    6273.79  39060.2  19067.8  2066.74
    6280.48  39464.8  19601.4  2138.04
    6287.26  39882.4  20079.1  2196.45
    6294.06  40341.1  20515.8  2251.98
    6300.95  40763  20956.5  2320.63
    6307.95  41154.9  21326.3  2378.39
    6315.05  41659  21864.2  2441.27
    6322.16  42077.1  22452.1  2497.27
    6329.38  42537.4  23127  2565.38
    6336.69  42964.8  23776.9  2642.6
    6344.11  43419.2  24365  2721.94
    6351.55  43846.8  24855  2795.4
    6359.09  44310.5  25387.1  2878.97
    6366.65  44799.3  25946.2  2974.66
    6374.31  45283.1  26545.4  3070.47
    6382.07  45740.1  27236.6  3166.39
    6389.95  46183.2  27863.9  3255.43
    6397.84  46644.4  28440.2  3338.58
    6405.84  47102.7  29114.5  3425.85
    6413.95  47551.1  29817.9  3525.23
    6422.08  48019.6  30504.3  3632.73
    6430.32  48471.2  31267.8  3732.35
    6438.58  48926.9  31995.3  3824.08
    6446.95  49403.7  32744.8  3928.93
    6455.43  49842.7  33603.4  4063.89
    6463.93  50354.7  34530  4207.98
    6472.55  50753.8  35347.7  4334.17
    6481.28  51170  36146.4  4449.48
    6490.03  51685.4  36988.2  4583.91
    6498.9  52091.8  37739  4695.45
    6507.79  52543.4  38583.8  4820.11
    6516.8  52972  39418.7  4959.89
    6525.92  53389.8  40203.6  5092.78
    6535.07  53885.6  41181.6  5240.78
    6544.25  54284.6  42135.6  5387.91
    6553.54  54626.6  43070.7  5528.14
    6562.95  55005.8  44091.7  5684.5
    6572.4  55478.1  45188.9  5853.97
    6581.96  55895.4  46153  6014.55
    6591.55  56328.9  47122.3  6177.25
    6601.26  56686.5  48016.5  6330.08
    6611.09  57104.2  49020.8  6492.01
    6620.95  57551  50171.2  6673.06
    6630.85  57998.8  51306.6  6858.22
    6640.87  58335.8  52363  7031.5
    6650.92  58698.9  53491.4  7224.9
    6661.1  59119.1  54692.9  7432.41
    6671.31  59450.4  55805.5  7624.04
    6681.64  59785.8  56918.1  7810.78
    6692.01  59981.4  57894.7  7978.64
    6702.51  57532  56308.4  7804.62
    6713.04  61825.7  61322.1  8546.71
    6723.7  61729.5  62097.9  8691.92
    6734.4  61679.4  62934.7  8855.25
    6745.14  62234.5  64454.5  9115.69
    6756  58802.6  61830.4  8796.24
    6766.91  63117.9  67379.3  9632.91
    6777.94  63494.2  68816.3  9894.7
    6789.02  63517.6  69838.3  10091.6
    6800.23  63167.2  70487.4  10241.6
    6811.48  66084.8  74830.4  10922.8
    6822.77  65082.6  74839.6  10973
    6834.19  65169.5  76066.8  11213.4
    6845.66  65307.4  77363  11466.9
    6857.16  65605.5  78859.2  11743.5
    6868.81  65827.7  80318.5  12028.2
    6880.5  65948.9  81610.9  12295
    6892.33  66160.3  83071.3  12578.9
    6904.2  66348.8  84544.7  12867
    6916.11  66508.4  86024.2  13158.2
    6928.18  66605.1  87451.7  13454.5
    6940.28  66819.9  89047.2  13770.9
    6952.43  66942.8  90554.8  14078.4
    6964.62  67040.8  92057.4  14382
    6976.96  67195.9  93627.1  14713.8
    6989.35  67339.1  95214.8  15035.7
    7001.88  67524.4  96860.6  15378.7
    7014.47  67606.8  98391.4  15692.8
    7027.1  67583.3  99771.2  15995
    7039.77  67750  101456  16346.3
    7052.6  67863.7  103093  16697.8
    7065.48  67915.5  104654  17039.4
    7078.41  67927.5  106213  17386
    7091.39  67976.5  107818  17750.8
    7104.53  67980.6  109364  18104.8
    7111.06  67964.5  110078  18250.5

File: cr2o3_rt_002.xdi
# XDI/1.0
# Column.1: energy eV
# Column.2: i0
# Column.3: itrans
# Column.4: irefer
# Beamline.name: SSRL 2-3
# Beamline.notes: vert slits = 0.6mm
# Detector.I0: N2 15cm
# Detector.I1: N2 30cm
# Detector.I2: N2 15cm
# Element.edge: K
# Element.symbol: Cr
# Mono.d_spacing: 3.13550
# Mono.name: Si(111)
# Mono.notes: unfocused, detuned 75%, clockwise at E=5990eV
# Sample.formula: Cr2O3
# Sample.name: Cr2O3
# Sample.prep: powder on tape (5 layers)
# Sample.reference: Cr foil
# Sample.temperature: room temp
# Scan.start_time: 1997-04-17 17:30:13
# ///
#    Note: mono d_spacing is nominal!
#     exafs to K16
#     396  E XMU XMUR I0
#-------------
#   energy   i0   itrans  irefer
    5759.99  27115.9  9422.5  1200.7
    5780.01  27042.9  9812.5  1265.7
    5799.97  26958.9  10212.5  1335.7
    5820  26866.9  10619.5  1404.7
    5839.97  26744.9  11022.5  1475.7
    5860.02  26659.9  11457.5  1549.7
    5879.99  26539.9  11875.5  1628.7
    5899.97  26444.9  12315.5  1706.7
    5920.02  26305.9  12750.5  1789.7
    5939.99  26203.9  13197.5  1873.7
    5959.97  26053.9  13613.5  1952.7
    5970.49  25970.9  13832.5  1994.7
    5971.53  25924.9  13830.5  1992.7
    5972.49  25711.9  13742.5  1981.7
    5973.53  25593.9  13704.5  1976.7
    5974.5  25919.9  13901.5  2005.7
    5975.46  25981.9  13955.5  2013.7
    5976.51  25983.9  13978.5  2021.7
    5977.47  25985.9  13999.5  2023.7
    5978.52  25970.9  14016.5  2027.7
    5979.48  25994.9  14054.5  2035.7
    5980.53  25975.9  14070.5  2036.7
    5981.49  25961.9  14080.5  2039.7
    5982.46  25989.9  14120.5  2043.7
    5983.51  25994.9  14144.5  2047.7
    5984.48  25988.9  14164.5  2049.7
    5985.52  25981.9  14176.5  2052.7
    5986.49  25588.9  13979.5  2023.7
    5987.46  23801.9  13016.5  1879.7
    5988.51  23251.9  12731.5  1833.7
    5989.48  24883.9  13631.5  1951.7
    5990.53  25449.9  13924.5  1948.7
    5991.5  25574.9  13904.5  1844.7
    5992.47  25645.9  13755.5  1749.7
    5993.52  25683.9  13832.5  1701.7
    5994.49  25669.9  13710.5  1644.7
    5995.47  25689.9  13484.5  1590.7
    5996.51  25673.9  13397.5  1564.7
    5997.49  25680.9  13443.5  1568.7
    5998.54  25695.9  13419.5  1558.7
    5999.51  25671.9  13223.5  1499.7
    6000.49  25653.9  12691.5  1386.7
    6001.46  25497.9  11623.5  1219.7
    6002.51  25248.9  10227.5  1035.7
    6003.49  25472.9  9378.5   925.7
    6004.47  25647.9  9055.5   874.7
    6005.52  25611.9  8485.5   802.7
    6006.5  25609.9  7719.5   717.7
    6007.47  25601.9  7018.5   640.7
    6008.53  25582.9  6107.5   547.7
    6009.5  25604.9  5555.5   489.7
    6010.94  25691.7  5631.26   483.465
    6012.82  25731.8  5309.3   457.581
    6014.78  25736  5334.38   484.812
    6016.81  25755.3  6232.5   577.16
    6018.93  25771.7  6638.67   607.624
    6021.12  25814.2  7067.88   633.203
    6023.39  25868.8  7093.13   635.897
    6025.73  25931.6  6840.43   620.708
    6028.16  25987.4  6888.76   617.635
    6030.58  26038.3  7414.13   652.677
    6033.16  26112.4  8019.55   700.837
    6035.82  26203.5  8449.01   738.111
    6038.56  26286.8  8810.51   764.501
    6041.37  26374.1  9010.06   776.008
    6044.26  26491.6  9045.64   781.63
    6047.24  26581.1  8997.27   787.368
    6050.29  26711.8  9061.93   800.221
    6053.42  26868.5  8925.65   804.191
    6056.56  27002.4  8683.4   801.277
    6059.85  27129.4  8536.19   800.478
    6063.22  27221.4  8336.02   787.795
    6066.68  27361.6  8228.9   774.229
    6070.13  27533.9  8263.81   760.777
    6073.75  27730.3  8361.78   754.442
    6077.37  27921.8  8587.78   784.222
    6081.15  28111.4  8803.82   830.119
    6084.93  28320.1  9106.9   882.13
    6088.8  28466.9  9418.04   919.26
    6092.83  28668.8  9753.2   918.503
    6096.86  28884.8  10048.4   905.864
    6100.98  29138.9  10168.7   890.339
    6105.18  29344.1  10270   908.931
    6109.46  29597.4  10494.3   968.638
    6113.83  29853.8  10749.7  1034.46
    6118.28  30134.4  10942.1  1069.4
    6122.74  30408  11108.5  1082.46
    6127.36  30668.7  11338.1  1104.63
    6131.99  30958.6  11560.6  1140.91
    6136.79  31238.5  11710.2  1166.32
    6141.59  31552.6  11821.8  1175.83
    6146.48  31838.7  11941.5  1184.47
    6151.46  32162  12167.2  1191.22
    6156.53  32491.3  12482.9  1214.08
    6161.6  32816.8  12608.7  1210.07
    6166.84  33124.3  12758.6  1204.17
    6172.1  33487  13080.5  1250.38
    6177.52  33838.8  13571.4  1335.71
    6182.95  34195.7  13896.3  1399.15
    6188.47  34572.6  14192.3  1445.71
    6194.08  34953.7  14557.4  1490.39
    6199.7  35304.9  15050.5  1553.19
    6205.5  35714.2  15643.6  1626.09
    6211.3  36068.6  16027.8  1685.12
    6217.2  36484.1  16331  1733.26
    6223.19  36879.7  16509.2  1743.52
    6229.2  37282.4  16684.5  1746.89
    6235.38  37614.2  16976.9  1751.38
    6241.56  37402.1  17147.3  1752.98
    6247.85  38276.1  17801.7  1820.7
    6254.23  38831.2  18332.1  1910.54
    6260.71  39297.5  18742.6  2002.49
    6267.2  39722.8  19102.2  2059.56
    6273.79  40141.2  19596.8  2123.74
    6280.48  40578.8  20150.4  2195.04
    6287.26  41042.4  20670.1  2260.45
    6294.06  41475.1  21111.8  2315.98
    6300.95  41914  21558.5  2386.63
    6307.95  42314.9  21947.3  2445.39
    6315.05  42846  22505.2  2511.27
    6322.16  43290.1  23115.1  2571.27
    6329.38  43739.4  23780  2634.38
    6336.69  44179.8  24451.9  2714.6
    6344.11  44633.2  25056  2791.94
    6351.55  45084.8  25565  2878.4
    6359.09  45536.5  26094.1  2961.97
    6366.65  46017.3  26667.2  3065.66
    6374.31  46519.1  27270.4  3164.47
    6382.07  46955.1  27963.6  3255.39
    6389.95  47379.2  28600.9  3339.43
    6397.84  47903.4  29226.2  3430.58
    6405.84  48374.7  29906.5  3521.85
    6413.95  48813.1  30621.9  3613.23
    6422.08  49292.6  31325.3  3720.73
    6430.32  49789.2  32118.8  3831.35
    6438.58  50224.9  32856.3  3925.08
    6446.95  50718.7  33617.8  4032.93
    6455.43  51177.7  34512.4  4172.89
    6463.93  51630.7  35439  4318.98
    6472.55  52085.8  36308.7  4448.17
    6481.28  52581  37155.4  4575.48
    6490.03  53046.4  37986.2  4706.91
    6498.9  53478.8  38765  4823.45
    6507.79  53925.4  39647.8  4953.11
    6516.8  54346  40468.7  5091.88
    6525.92  54830.8  41331.6  5234.78
    6535.07  55328.6  42308.6  5381.78
    6544.25  55653.6  43214.6  5530.91
    6553.54  56006.6  44194.7  5668.14
    6562.95  56432.8  45246.7  5829.5
    6572.4  56891.1  46358.9  6004.97
    6581.96  57307.4  47353.1  6168.55
    6591.55  57789.9  48380.3  6344.26
    6601.26  58217.5  49349.5  6501.07
    6611.09  58615.2  50360.8  6667
    6620.95  59141  51577.2  6861.05
    6630.85  59550.8  52696.5  7042.22
    6640.87  59891.8  53765  7230.5
    6650.92  60338.9  54996.4  7440.9
    6661.1  60690.1  56169.9  7651.41
    6671.31  60988.4  57258.5  7829.04
    6681.64  61407.8  58461.1  8027.78
    6692.01  61595.4  59465.7  8211.64
    6702.51  59263  57996.4  8042.62
    6713.04  63444.7  62941.1  8772.71
    6723.7  63291.5  63688.9  8916.92
    6734.4  63339.4  64687.7  9119.24
    6745.14  63835.5  66137.5  9371.69
    6756  60171.6  63270.4  9018.24
    6766.91  64775.9  69138.3  9904.92
    6777.94  65184.2  70617.3  10166.7
    6789.02  65126.6  71580.3  10366.6
    6800.23  64702.2  72167.4  10502.6
    6811.48  67553.8  76507.4  11197.8
    6822.77  66616.6  76603.6  11271
    6834.19  66770.5  77932.8  11524.4
    6845.66  66960.4  79333  11790.9
    6857.16  67134.5  80741.2  12053.5
    6868.81  67239.7  82088.5  12314.2
    6880.5  67513.9  83607.9  12603
    6892.33  67679.3  85057.3  12886.9
    6904.2  67931.8  86659.7  13194
    6916.11  68110.4  88157.2  13497.2
    6928.18  68129.1  89517.7  13769.5
    6940.28  68364.9  91123.2  14105.9
    6952.43  68457.8  92646.8  14416.4
    6964.62  68677.8  94337.4  14755
    6976.96  68829.9  95957.1  15089.8
    6989.35  68926.1  97516.8  15407.7
    7001.88  69075.4  99127.6  15734.7
    7014.47  69253.8  100818  16096.8
    7027.1  69331.3  102363  16423
    7039.77  69521  104098  16790.3
    7052.6  69553.7  105687  17142.8
    7065.48  69633.5  107341  17494.4
    7078.41  69666.5  108948  17853
    7091.39  69718.5  110611  18224.8
    7104.53  69785.6  112285  18600.8
    7111.06  69795.5  113101  18780.5