Folder: XASDataLibrary/data/Cr (part 14)

File: na2cro4_100K_003.xdi
# XDI/1.0
# Column.1: energy eV
# Column.2: i0
# Column.3: itrans
# Column.4: irefer
# Beamline.name: SSRL 2-3
# Beamline.notes: vert slits = 0.6mm
# Detector.I0: N2 15cm
# Detector.I1: N2 30cm
# Detector.I2: N2 15cm
# Element.edge: K
# Element.symbol: Cr
# Mono.d_spacing: 3.13550
# Mono.name: Si(111)
# Mono.notes: unfocused, detuned 75%, clockwise at E=5990eV
# Sample.formula: Na2CrO4
# Sample.name: Na2CrO4
# Sample.prep: powder on tape (5 layers)
# Sample.reference: Cr foil
# Sample.temperature: 100K
# Scan.start_time: 1997-04-18 19:10:23
# ///
#    Note: mono d_spacing is nominal!
#     exafs to K16
#     396  E XMU XMUR I0
#-------------
#   energy   i0   itrans  irefer
    5759.99  218716  15107.7  1930.3
    5780.01  218482  15652.7  2024.3
    5799.97  218138  16195.7  2122.3
    5820  217663  16736.7  2219.3
    5839.97  217233  17299.7  2323.3
    5860.02  217151  17895.7  2431.3
    5879.99  216447  18452.7  2539.3
    5899.97  215710  19024.7  2647.3
    5920.02  215313  19632.7  2762.3
    5939.99  214473  20192.7  2875.3
    5959.97  213897  20777.7  2990.3
    5970.49  213153  21040.7  3042.3
    5971.53  211934  20953.7  3029.3
    5972.49  209635  20754.7  3002.3
    5973.53  212378  21056.7  3049.3
    5974.5  213627  21212.7  3072.3
    5975.46  213596  21234.7  3078.3
    5976.51  213648  21272.7  3084.3
    5977.47  213719  21315.7  3090.3
    5978.52  213647  21322.7  3091.3
    5979.48  213700  21367.7  3100.3
    5980.53  213723  21394.7  3104.3
    5981.49  213632  21416.7  3107.3
    5982.46  213830  21467.7  3113.3
    5983.51  214176  21533.7  3123.3
    5984.48  213985  21539.7  3125.3
    5985.52  212532  21419.7  3102.3
    5986.49  201043  20278.7  2934.3
    5987.46  185545  18728.7  2706.3
    5988.51  203216  20526.7  2950.3
    5989.48  209420  21160.7  2998.3
    5990.53  210959  21283.7  2867.3
    5991.5  211494  21232.7  2725.3
    5992.47  211944  21022.7  2614.3
    5993.52  211930  20045.7  2424.3
    5994.49  211995  17667.7  2096.3
    5995.47  212149  18660.7  2188.3
    5996.51  212118  20682.7  2417.3
    5997.49  212115  21083.7  2463.3
    5998.54  212217  21138.7  2421.3
    5999.51  212246  20982.7  2321.3
    6000.49  211594  20673.7  2199.3
    6001.46  209189  20175.7  2068.3
    6002.51  209782  19979.7  1983.3
    6003.49  212073  19915.7  1932.3
    6004.47  212307  19564.7  1860.3
    6005.52  212197  19075.7  1780.3
    6006.5  212400  18576.7  1707.3
    6007.47  212182  17989.7  1621.3
    6008.53  212069  17353.7  1533.3
    6009.5  211788  16840.7  1462.3
    6010.94  212505  16390.5  1395.06
    6012.82  212131  16084.5  1411.18
    6014.78  212301  16093.6  1478.42
    6016.81  212861  16170.8  1498.77
    6018.93  212788  16142  1463.23
    6021.12  213247  16125.3  1440.82
    6023.39  213612  16101.6  1451.52
    6025.73  214050  16108  1460.33
    6028.16  214779  16236.4  1450.27
    6030.58  215211  16418.9  1447.32
    6033.16  215834  16625.5  1453.49
    6035.82  216946  16826  1469.77
    6038.56  217595  16957.7  1472.18
    6041.37  218239  17110.4  1476.7
    6044.26  218941  17356.2  1509.33
    6047.24  220044  17657  1548.08
    6050.29  221129  17880.8  1585.95
    6053.42  222411  18181.8  1650.94
    6056.56  223511  18485.8  1714.04
    6059.85  224539  18752.8  1764.26
    6063.22  225405  18973.9  1794.6
    6066.68  226608  19203  1795.05
    6070.13  228253  19445.2  1776.62
    6073.75  229620  19638.5  1766.31
    6077.37  231474  19873.8  1821.11
    6081.15  232868  20076.1  1896.03
    6084.93  234988  20356.5  1974.07
    6088.8  236488  20623  1997.22
    6092.83  238725  20970.5  1955.49
    6096.86  240634  21289.1  1899.88
    6100.98  242660  21598.8  1880.39
    6105.18  244744  21888.4  1941.01
    6109.46  246890  22154.2  2057.75
    6113.83  249450  22472  2168.6
    6118.28  251709  22794.8  2228.57
    6122.74  253799  23108.7  2248.66
    6127.36  256672  23511.7  2292.87
    6131.99  258625  23868.7  2360.19
    6136.79  261331  24319.8  2425.63
    6141.59  264250  24816.9  2469.19
    6146.48  266628  25269.1  2502.86
    6151.46  269390  25757.3  2520.65
    6156.53  272455  26284.6  2560.55
    6161.6  275231  26800.9  2575.58
    6166.84  278047  27340.3  2586.72
    6172.1  280883  27891.8  2683.97
    6177.52  283965  28483.3  2819.35
    6182.95  287247  29085.8  2937.84
    6188.47  290270  29684.4  3024.45
    6194.08  293524  30301.1  3105.17
    6199.7  297414  30964.8  3201.01
    6205.5  300705  31580.6  3282.97
    6211.3  304051  32187.4  3387.05
    6217.2  307195  32786.3  3477.24
    6223.19  310532  33377.3  3520.54
    6229.2  314241  34051.3  3550.97
    6235.38  315560  34484.3  3548.51
    6241.56  313016  34485.4  3518.17
    6247.85  324347  36048.6  3685.95
    6254.23  328394  36839.8  3855.84
    6260.71  332273  37613  4030.85
    6267.2  335850  38379.4  4146.98
    6273.79  339760  39199.7  4252.21
    6280.48  343666  40058.1  4373.57
    6287.26  347492  40915.6  4476.05
    6294.06  351539  41803.2  4591.65
    6300.95  355606  42736.8  4734.36
    6307.95  359557  43671.4  4864.19
    6315.05  363637  44623.1  4975.13
    6322.16  368185  45644.8  5069.19
    6329.38  372270  46631.7  5169.37
    6336.69  376107  47588.5  5284.66
    6344.11  380517  48633.5  5433.08
    6351.55  384879  49678.4  5597.6
    6359.09  389034  50705.4  5766.24
    6366.65  392983  51712.5  5946.01
    6374.31  397601  52834.7  6121.89
    6382.07  401822  53910.8  6266.88
    6389.95  406038  55027.1  6425.99
    6397.84  410584  56207.4  6597.22
    6405.84  415147  57428.7  6760.57
    6413.95  419499  58654.1  6935.03
    6422.08  423817  59883.6  7125.61
    6430.32  428556  61206.1  7304.31
    6438.58  433338  62574.6  7474.11
    6446.95  437462  63853.3  7664.05
    6455.43  441908  65239  7889.09
    6463.93  446775  66677.7  8127.26
    6472.55  451378  68133.5  8349.54
    6481.28  455778  69577.3  8579.93
    6490.03  460733  71127.3  8820.45
    6498.9  464890  72596.2  9031.08
    6507.79  469914  74195.2  9272.83
    6516.8  474083  75702.2  9529.68
    6525.92  478259  77210.3  9780.67
    6535.07  483131  78869.6  10041.8
    6544.25  486872  80375.8  10273
    6553.54  490986  81954  10511.3
    6562.95  495589  83643.4  10776.8
    6572.4  500291  85337.7  11054.3
    6581.96  504685  87049.2  11341
    6591.55  509135  88776.7  11636.8
    6601.26  513779  90596.2  11929.7
    6611.09  518109  92399.9  12236.8
    6620.95  522919  94289.5  12541.9
    6630.85  526636  96020.2  12839.2
    6640.87  530319  97766  13143.6
    6650.92  534445  99669.8  13475.1
    6661.1  538781  101626  13806.7
    6671.31  542472  103433  14122.4
    6681.64  546765  105419  14462.3
    6692.01  549323  107098  14763.2
    6702.51  525955  103868  14383.3
    6713.04  565383  112747  15681.5
    6723.7  566478  114211  15965.8
    6734.4  568014  115848  16276.3
    6745.14  572973  118168  16694.8
    6756  571634  119253  16938.5
    6766.91  582421  122911  17553.3
    6777.94  587246  125350  17999.2
    6789.02  589183  127216  18365.2
    6800.23  587562  128321  18624.3
    6811.48  607677  134217  19583.6
    6822.77  605548  135291  19850.9
    6834.19  607797  137341  20266.4
    6845.66  611006  139702  20702
    6857.16  614447  142079  21159.8
    6868.81  617568  144488  21631.6
    6880.5  620814  146929  22101.6
    6892.33  623964  149419  22596.6
    6904.2  627135  151906  23095.8
    6916.11  630524  154505  23622.1
    6928.18  632571  156844  24111.5
    6940.28  634706  159203  24617.1
    6952.43  637428  161745  25141.7
    6964.62  640271  164301  25662.5
    6976.96  643071  166938  26212.4
    6989.35  645952  169573  26770.4
    7001.88  648429  172187  27322.5
    7014.47  651427  174921  27900.7
    7027.1  653640  177497  28447.1
    7039.77  656004  180131  29034.6
    7052.6  658703  182897  29638.2
    7065.48  660473  185414  30193.9
    7078.41  663000  188194  30811.7
    7091.39  665723  191084  31443.6
    7104.53  667037  193561  32013.7
    7111.06  667402  194731  32302.5

File: na2cro4_rt_001.xdi
# XDI/1.0
# Column.1: energy eV
# Column.2: i0
# Column.3: itrans
# Column.4: irefer
# Beamline.name: SSRL 2-3
# Beamline.notes: vert slits = 0.6mm
# Detector.I0: N2 15cm
# Detector.I1: N2 30cm
# Detector.I2: N2 15cm
# Element.edge: K
# Element.symbol: Cr
# Mono.d_spacing: 3.13550
# Mono.name: Si(111)
# Mono.notes: unfocused, detuned 75%, clockwise at E=5990eV
# Sample.formula: Na2CrO4
# Sample.name: Na2CrO4
# Sample.prep: powder on tape (4 layers)
# Sample.reference: Cr foil
# Sample.temperature: room temp
# Scan.start_time: 1997-04-17 23:39:33
# ///
#    Note: mono d_spacing is nominal!
#     exafs to K16
#     396  E XMU XMUR I0
#-------------
#   energy   i0   itrans  irefer
    5759.99  25203.9  18364.5  2330.7
    5780.01  25178.9  19016.5  2442.7
    5799.97  25117.9  19653.5  2557.7
    5820  25054.9  20302.5  2675.7
    5839.97  24972.9  20956.5  2795.7
    5860.02  24890.9  21606.5  2914.7
    5879.99  24812.9  22268.5  3041.7
    5899.97  24747.9  22960.5  3172.7
    5920.02  24654.9  23635.5  3307.7
    5939.99  24551.9  24301.5  3438.7
    5959.97  24452.9  24949.5  3565.7
    5970.49  24371.9  25277.5  3631.7
    5971.53  24202.9  25129.5  3613.7
    5972.49  24020.9  24986.5  3593.7
    5973.53  24277.9  25278.5  3637.7
    5974.5  24422.9  25471.5  3665.7
    5975.46  24410.9  25493.5  3669.7
    5976.51  24417.9  25536.5  3677.7
    5977.47  24411.9  25561.5  3682.7
    5978.52  24422.9  25601.5  3692.7
    5979.48  24399.9  25624.5  3692.7
    5980.53  24450.9  25715.5  3708.7
    5981.49  24435.9  25727.5  3709.7
    5982.46  24460.9  25784.5  3718.7
    5983.51  24453.9  25813.5  3722.7
    5984.48  24474.9  25862.5  3730.7
    5985.52  24275.9  25682.5  3701.7
    5986.49  23241.9  24609.5  3541.7
    5987.46  21148.9  22413.5  3220.7
    5988.51  23117.9  24518.5  3505.7
    5989.48  23809.9  25246.5  3565.7
    5990.53  24060.9  25461.5  3432.7
    5991.5  24136.9  25408.5  3261.7
    5992.47  24153.9  25095.5  3118.7
    5993.52  24190.9  23891.5  2883.7
    5994.49  24190.9  20592.5  2437.7
    5995.47  24212.9  21445.5  2504.7
    5996.51  24205.9  24458.5  2848.7
    5997.49  24218.9  25111.5  2922.7
    5998.54  24198.9  25178.5  2882.7
    5999.51  24210.9  25014.5  2761.7
    6000.49  24113.9  24569.5  2607.7
    6001.46  23904.9  23992.5  2455.7
    6002.51  23879.9  23654.5  2344.7
    6003.49  24154.9  23580.5  2285.7
    6004.47  24177.9  23151.5  2198.7
    6005.52  24183.9  22547.5  2100.7
    6006.5  24166.9  21873.5  2003.7
    6007.47  24172.9  21117.5  1899.7
    6008.53  24161.9  20246.5  1786.7
    6009.5  24153.9  19600.5  1698.7
    6010.94  24150.7  18896.3  1602.46
    6012.82  24190.8  18471.3  1612.58
    6014.78  24184  18397.4  1682.81
    6016.81  24222.3  18433.5  1703.16
    6018.93  24245.7  18363.7  1662.62
    6021.12  24281.2  18336.9  1632.2
    6023.39  24327.8  18351.1  1647.9
    6025.73  24394.6  18349.4  1660.71
    6028.16  24431.4  18417.8  1640.63
    6030.58  24516.3  18632.1  1637.68
    6033.16  24584.4  18830.6  1644.84
    6035.82  24668.5  18969  1657.11
    6038.56  24743.8  19059.5  1654.5
    6041.37  24843.1  19250.1  1661.01
    6044.26  24941.6  19638.6  1704.63
    6047.24  25045.1  20061.3  1757.37
    6050.29  25181.8  20372.9  1806.22
    6053.42  25297.5  20691.6  1875.19
    6056.56  25455.4  21100.4  1952.28
    6059.85  25564.4  21422.2  2011.48
    6063.22  25648.4  21688  2047.8
    6066.68  25799.6  21972.9  2053.23
    6070.13  25957.9  22237.8  2029.78
    6073.75  26153.3  22502.8  2020.44
    6077.37  26324.8  22740.8  2079.22
    6081.15  26518.4  22996.8  2165.12
    6084.93  26738.1  23284.9  2255.13
    6088.8  26948.9  23606  2287.26
    6092.83  27135.8  23942.2  2234.5
    6096.86  27372.8  24313.4  2170.86
    6100.98  27602.9  24645.7  2142.34
    6105.18  27836.1  24946  2207.93
    6109.46  28071.4  25219.3  2339.64
    6113.83  28342.8  25568.7  2466.46
    6118.28  28606.4  25927.1  2532.4
    6122.74  28862  26290.6  2558.46
    6127.36  29126.7  26707.1  2603.63
    6131.99  29400.6  27144.6  2681.92
    6136.79  29712.5  27688.2  2757.32
    6141.59  30017.6  28229.8  2806.84
    6146.48  30282.7  28760.5  2841.47
    6151.46  30588  29334.2  2866.22
    6156.53  30912.3  29939.9  2915.08
    6161.6  31244.8  30554.7  2929.07
    6166.84  31562.3  31180.6  2947.17
    6172.1  31880  31806.5  3056.38
    6177.52  32239.8  32494.4  3209.71
    6182.95  32574.7  33140.3  3342.15
    6188.47  32906.6  33826.3  3437.71
    6194.08  33219.7  34463.4  3523.39
    6199.7  33610.9  35169.5  3623.19
    6205.5  33977.2  35843.6  3717.09
    6211.3  34348.6  36535.8  3836.12
    6217.2  34701.1  37200  3937.26
    6223.19  35104.7  37918.2  3988.52
    6229.2  35521.4  38671.5  4025.89
    6235.38  35676.2  39163.9  4025.38
    6241.56  35386.1  39175.3  3988.98
    6247.85  36645.1  40907.7  4176.7
    6254.23  37103.2  41789.1  4362.54
    6260.71  37536.5  42668.6  4569.49
    6267.2  37978.8  43601.2  4702.56
    6273.79  38378.2  44500.8  4816.74
    6280.48  38823.8  45475.4  4951.04
    6287.26  39267.4  46460.1  5072.45
    6294.06  39703.1  47473.8  5202.98
    6300.95  40124  48474.5  5357.63
    6307.95  40513.9  49464.3  5497.39
    6315.05  40969  50558.2  5623.27
    6322.16  41393.1  51603.1  5721.27
    6329.38  41881.4  52757  5836.38
    6336.69  42329.8  53864  5969.6
    6344.11  42798.2  55010  6127.94
    6351.55  43247.8  56121  6309.4
    6359.09  43732.5  57339.1  6500.97
    6366.65  44213.3  58527.2  6716.67
    6374.31  44679.1  59715.4  6907.47
    6382.07  45146.1  60950.6  7072.39
    6389.95  45644.2  62247.9  7252.43
    6397.84  46141.4  63547.2  7442.58
    6405.84  46605.7  64879.5  7617.85
    6413.95  47091.1  66237.9  7810.23
    6422.08  47555.6  67642.3  8025.73
    6430.32  48038.2  69058.8  8221.35
    6438.58  48499.9  70470.3  8399.08
    6446.95  49017.7  72039.8  8616.93
    6455.43  49438.7  73481.4  8862.9
    6463.93  49954.7  75088  9124.98
    6472.55  50463.8  76716.7  9375.17
    6481.28  50951  78326.4  9628.48
    6490.03  51436.4  79959.2  9888.9
    6498.9  51928.8  81665  10129.5
    6507.79  52373.4  83289.8  10378.1
    6516.8  52786  84888.7  10647.9
    6525.92  53268.8  86604.6  10931.8
    6535.07  53720.6  88321.6  11206.8
    6544.25  54157.6  90017.6  11471.9
    6553.54  54549.6  91659.7  11717.1
    6562.95  55026.8  93511.7  12008.5
    6572.4  55521.1  95385.9  12317
    6581.96  55988.4  97291.1  12636.6
    6591.55  56446.9  99131.3  12959.3
    6601.26  56909.5  101092  13281.1
    6611.09  57354.2  103014  13603
    6620.95  57822  105017  13941.1
    6630.85  58228.8  106979  14269.2
    6640.87  58637.8  108915  14614.5
    6650.92  58991.9  110814  14953.9
    6661.1  59528.1  113046  15341.4
    6671.31  59735.4  114687  15641
    6681.64  60167.8  116808  16005.8
    6692.01  60396.4  118565  16331.7
    6702.51  57482  114168  15802.6
    6713.04  62219.7  124938  17369.7
    6723.7  62269.5  126413  17661.9
    6734.4  62320.4  127985  17972.2
    6745.14  62900.5  130657  18444.7
    6756  62412.6  131179  18622.2
    6766.91  63888.9  135738  19373.9
    6777.94  64405.2  138436  19866.7
    6789.02  64490.6  140225  20228.6
    6800.23  64200.2  141158  20481.6
    6811.48  66672.8  148315  21628.7
    6822.77  66237.6  149028  21852
    6834.19  66449.5  151232  22284.4
    6845.66  66696.4  153581  22742.9
    6857.16  67005.5  156059  23232.5
    6868.81  67264.7  158471  23709.2
    6880.5  67564.9  161033  24214
    6892.33  67791.3  163525  24729.9
    6904.2  68126.8  166214  25272
    6916.11  68358.4  168734  25784.2
    6928.18  68532.1  171112  26292.5
    6940.28  68812.9  173828  26866.9
    6952.43  69006.8  176307  27399.4
    6964.62  69287.8  179078  27977.1
    6976.96  69527.9  181755  28553.8
    6989.35  69803.1  184534  29124.7
    7001.88  69989.4  187180  29688.7
    7014.47  70256.8  190018  30306.8
    7027.1  70413.3  192545  30860
    7039.77  70636  195294  31458.3
    7052.6  70793.7  197839  32032.8
    7065.48  70972.5  200597  32648.3
    7078.41  71168.5  203398  33280
    7091.39  71215.5  205823  33841.9
    7104.53  71361.6  208504  34463.8
    7111.06  71348.5  209607  34725.5

File: na2cro4_rt_002.xdi
# XDI/1.0
# Column.1: energy eV
# Column.2: i0
# Column.3: itrans
# Column.4: irefer
# Beamline.name: SSRL 2-3
# Beamline.notes: vert slits = 0.6mm
# Detector.I0: N2 15cm
# Detector.I1: N2 30cm
# Detector.I2: N2 15cm
# Element.edge: K
# Element.symbol: Cr
# Mono.d_spacing: 3.13550
# Mono.name: Si(111)
# Mono.notes: unfocused, detuned 75%, clockwise at E=5990eV
# Sample.formula: Na2CrO4
# Sample.name: Na2CrO4
# Sample.prep: powder on tape (4 layers)
# Sample.reference: Cr foil
# Sample.temperature: room temp
# Scan.start_time: 1997-04-17 23:39:33
# ///
#    Note: mono d_spacing is nominal!
#     exafs to K16
#     396  E XMU XMUR I0
#-------------
#   energy   i0   itrans  irefer
    5759.99  24927.9  18172.5  2309.7
    5780.01  24856.9  18770.5  2418.7
    5799.97  24784.9  19392.5  2529.7
    5820  24727.9  20035.5  2643.7
    5839.97  24674.9  20694.5  2765.7
    5860.02  24615.9  21359.5  2889.7
    5879.99  24543.9  22023.5  3015.7
    5899.97  24457.9  22692.5  3144.7
    5920.02  24355.9  23349.5  3272.7
    5939.99  24260.9  24006.5  3403.7
    5959.97  24179.9  24677.5  3533.7
    5970.49  24112.9  25003.5  3599.7
    5971.53  23922.9  24836.5  3577.7
    5972.49  23766.9  24704.5  3556.7
    5973.53  24017.9  25000.5  3603.7
    5974.5  24150.9  25180.5  3627.7
    5975.46  24142.9  25200.5  3632.7
    5976.51  24155.9  25253.5  3641.7
    5977.47  24134.9  25275.5  3643.7
    5978.52  24150.9  25316.5  3651.7
    5979.48  24126.9  25332.5  3654.7
    5980.53  24154.9  25395.5  3664.7
    5981.49  24134.9  25418.5  3664.7
    5982.46  24171.9  25473.5  3675.7
    5983.51  24162.9  25500.5  3681.7
    5984.48  24183.9  25555.5  3685.7
    5985.52  23988.9  25390.5  3661.7
    5986.49  22979.9  24326.5  3502.7
    5987.46  20895.9  22131.5  3181.7
    5988.51  22852.9  24231.5  3465.7
    5989.48  23520.9  24939.5  3522.7
    5990.53  23790.9  25174.5  3392.7
    5991.5  23845.9  25101.5  3222.7
    5992.47  23889.9  24820.5  3080.7
    5993.52  23880.9  23585.5  2846.7
    5994.49  23910.9  20367.5  2408.7
    5995.47  23905.9  21161.5  2471.7
    5996.51  23907.9  24153.5  2811.7
    5997.49  23901.9  24787.5  2881.7
    5998.54  23899.9  24877.5  2846.7
    5999.51  23871.9  24656.5  2721.7
    6000.49  23832.9  24283.5  2576.7
    6001.46  23598.9  23684.5  2419.7
    6002.51  23600.9  23371.5  2315.7
    6003.49  23845.9  23270.5  2252.7
    6004.47  23879.9  22854.5  2168.7
    6005.52  23873.9  22241.5  2069.7
    6006.5  23863.9  21586.5  1973.7
    6007.47  23865.9  20832.5  1870.7
    6008.53  23855.9  19977.5  1759.7
    6009.5  23856.9  19349.5  1675.7
    6010.94  23854.7  18661.3  1583.46
    6012.82  23863.8  18221.3  1591.58
    6014.78  23852  18148.4  1661.81
    6016.81  23899.3  18190.5  1681.16
    6018.93  23912.7  18117.7  1638.62
    6021.12  23964.2  18109.9  1612.2
    6023.39  23994.8  18110.1  1627.9
    6025.73  24062.6  18097.4  1637.71
    6028.16  24104.4  18167.8  1618.64
    6030.58  24188.3  18385.1  1617.68
    6033.16  24263.4  18587.6  1623.84
    6035.82  24332.5  18712  1633.11
    6038.56  24440.8  18832.5  1634.5
    6041.37  24498.1  18986.1  1636.01
    6044.26  24624.6  19391.6  1681.63
    6047.24  24726.1  19811.3  1732.37
    6050.29  24843.8  20105.9  1781.22
    6053.42  24994.5  20460.6  1850.19
    6056.56  25112.4  20813.4  1924.28
    6059.85  25235.4  21148.2  1984.48
    6063.22  25315.4  21394  2020.8
    6066.68  25455.6  21674.9  2022.23
    6070.13  25627.9  21953.8  2002.78
    6073.75  25828.3  22225.8  1991.44
    6077.37  26001.8  22450.8  2049.22
    6081.15  26212.4  22732.8  2137.12
    6084.93  26418.1  23003.9  2221.13
    6088.8  26589.9  23290  2249.26
    6092.83  26821.8  23660.2  2198.5
    6096.86  27056.8  24024.4  2135.86
    6100.98  27275.9  24358.7  2110.34
    6105.18  27516.1  24664  2176.93
    6109.46  27781.4  24963.3  2307.64
    6113.83  28028.8  25275.7  2430.46
    6118.28  28275.4  25623.1  2494.4
    6122.74  28530  25994.6  2522.46
    6127.36  28798.7  26389.1  2564.63
    6131.99  29088.6  26858.6  2644.91
    6136.79  29388.5  27388.2  2720.32
    6141.59  29674.6  27918.8  2766.83
    6146.48  29956.7  28447.5  2805.47
    6151.46  30246  29004.2  2827.22
    6156.53  30557.3  29588.9  2876.08
    6161.6  30865.8  30175.7  2890.07
    6166.84  31189.3  30808.6  2904.17
    6172.1  31510  31431.5  3014.38
    6177.52  31829.8  32075.4  3161.71
    6182.95  32191.7  32767.3  3299.15
    6188.47  32516.6  33417.3  3392.71
    6194.08  32856.7  34078.4  3480.39
    6199.7  33224.9  34766.5  3578.18
    6205.5  33586.2  35448.6  3673.09
    6211.3  33950.6  36115.8  3788.12
    6217.2  34322.1  36808  3890.26
    6223.19  34708.7  37507.2  3944.52
    6229.2  35090.4  38215.5  3974.89
    6235.38  35287.2  38735.9  3974.38
    6241.56  35004.1  38734.3  3938.98
    6247.85  36257.1  40486.7  4127.7
    6254.23  36663.2  41315.1  4309.54
    6260.71  37110.5  42202.6  4516.49
    6267.2  37516.8  43082.2  4642.55
    6273.79  37942.2  44001.8  4755.74
    6280.48  38359.8  44934.4  4888.04
    6287.26  38793.4  45921.1  5007.45
    6294.06  39245.1  46928.8  5136.98
    6300.95  39613  47849.5  5288.63
    6307.95  40070.9  48930.3  5435.39
    6315.05  40547  50049.2  5569.27
    6322.16  41000.1  51130.1  5665.26
    6329.38  41501.4  52271  5784.38
    6336.69  41929.8  53351  5911.6
    6344.11  42403.2  54521  6074.95
    6351.55  42888.8  55692  6260.4
    6359.09  43337.5  56825.1  6445.98
    6366.65  43820.3  57998.2  6657.66
    6374.31  44271.1  59177.4  6844.47
    6382.07  44707.1  60360.6  7002.39
    6389.95  45179.2  61608.9  7176.43
    6397.84  45670.4  62915.2  7365.58
    6405.84  46146.7  64224.5  7541.84
    6413.95  46657.1  65622.9  7736.23
    6422.08  47120.6  67006.3  7947.73
    6430.32  47554.2  68357.8  8138.35
    6438.58  48005.9  69760.3  8311.08
    6446.95  48530.7  71301.8  8530.93
    6455.43  48970.7  72742.4  8772.89
    6463.93  49497.7  74402  9041.97
    6472.55  49948.8  75892.7  9271.17
    6481.28  50456  77562.4  9531.48
    6490.03  50934.4  79175.2  9788.91
    6498.9  51407.8  80808  10026.5
    6507.79  51906.4  82510.8  10280.1
    6516.8  52301  84085.7  10545.9
    6525.92  52815.8  85852.6  10838.8
    6535.07  53322.6  87659.6  11128.8
    6544.25  53700.6  89239.6  11377.9
    6553.54  54124.6  90943.7  11630.1
    6562.95  54584.8  92731.7  11907.5
    6572.4  55086.1  94618.9  12218
    6581.96  55543.4  96446.1  12522.6
    6591.55  56026.9  98384.3  12854.3
    6601.26  56453.5  100248  13165.1
    6611.09  56928.2  102235  13493
    6620.95  57427  104279  13829.1
    6630.85  57858.8  106262  14165.2
    6640.87  58296.8  108281  14513.5
    6650.92  58684.9  110237  14860.9
    6661.1  59161.1  112352  15233.4
    6671.31  59584.4  114396  15592
    6681.64  59936.8  116385  15935.8
    6692.01  60204.4  118188  16265.6
    6702.51  57272  113759  15732.6
    6713.04  61969.7  124483  17292.7
    6723.7  62008.5  125936  17581.9
    6734.4  62056.4  127502  17898.2
    6745.14  62617.5  130117  18361.7
    6756  62265.6  130865  18577.2
    6766.91  63633.9  135256  19301.9
    6777.94  64114.2  137870  19772.7
    6789.02  64182.6  139552  20128.6
    6800.23  63958.2  140624  20399.6
    6811.48  66479.8  147886  21562.8
    6822.77  66007.6  148572  21780
    6834.19  66204.5  150714  22208.4
    6845.66  66499.4  153117  22670.9
    6857.16  66819.5  155628  23158.5
    6868.81  67070.7  158040  23648.2
    6880.5  67347.9  160574  24156
    6892.33  67670.3  163200  24685.9
    6904.2  67916.8  165686  25200
    6916.11  68032.4  167903  25674.2
    6928.18  67978.1  169752  26100.5
    6940.28  68254.9  172366  26655.9
    6952.43  68432.8  174858  27185.4
    6964.62  68707.8  177497  27742
    6976.96  68943.9  180176  28299.8
    6989.35  69170.1  182902  28871.7
    7001.88  69421.4  185685  29464.7
    7014.47  69665.8  188374  30041.8
    7027.1  69836.3  190967  30605
    7039.77  70111  193875  31242.3
    7052.6  70258.7  196443  31824.8
    7065.48  70448.5  199123  32439.4
    7078.41  70616.5  201802  33032
    7091.39  70777.5  204509  33662.8
    7104.53  70880.6  207119  34257.7
    7111.06  70937.5  208420  34557.5