Folder: XASDataLibrary/data/Cr (part 12)

File: k2cro4_rt_002.xdi
# XDI/1.0
# Column.1: energy eV
# Column.2: i0
# Column.3: itrans
# Column.4: irefer
# Beamline.name: SSRL 2-3
# Beamline.notes: vert slits = 0.6mm
# Detector.I0: N2 15cm
# Detector.I1: N2 30cm
# Detector.I2: N2 15cm
# Element.edge: K
# Element.symbol: Cr
# Mono.d_spacing: 3.13550
# Mono.name: Si(111)
# Mono.notes: unfocused, detuned 75%, clockwise at E=5990eV
# Sample.formula: K2CrO4
# Sample.name: K2CrO4
# Sample.prep: powder on tape (5 layers)
# Sample.reference: Cr foil
# Sample.temperature: room temperature
# Scan.start_time: 1997-04-17 22:36:29
# ///
#    Note: mono d_spacing is nominal!
#     exafs to K16
#     396  E XMU XMUR I0
#-------------
#   energy   i0   itrans  irefer
    5759.99  25333.9  7326.5   936.7
    5780.01  25296.9  7638.5   989.699
    5799.97  25231.9  7955.5  1041.7
    5820  25164.9  8287.5  1097.7
    5839.97  25091.9  8617.5  1156.7
    5860.02  24999.9  8953.5  1213.7
    5879.99  24928.9  9310.5  1278.7
    5899.97  24851.9  9673.5  1340.7
    5920.02  24762.9  10029.5  1407.7
    5939.99  24668.9  10385.5  1474.7
    5959.97  24573.9  10747.5  1543.7
    5970.49  24474.9  10913.5  1572.7
    5971.53  24322.9  10862.5  1567.7
    5972.49  24111.9  10793.5  1557.7
    5973.53  24410.9  10945.5  1580.7
    5974.5  24493.9  11003.5  1587.7
    5975.46  24528.9  11035.5  1596.7
    5976.51  24509.9  11041.5  1596.7
    5977.47  24530.9  11072.5  1599.7
    5978.52  24510.9  11083.5  1603.7
    5979.48  24530.9  11107.5  1607.7
    5980.53  24518.9  11119.5  1608.7
    5981.49  24535.9  11141.5  1612.7
    5982.46  24529.9  11152.5  1614.7
    5983.51  24583.9  11197.5  1618.7
    5984.48  24562.9  11195.5  1619.7
    5985.52  24390.9  11124.5  1606.7
    5986.49  23339.9  10656.5  1539.7
    5987.46  21238.9  9702.5  1399.7
    5988.51  23179.9  10586.5  1518.7
    5989.48  23902.9  10897.5  1544.7
    5990.53  24158.9  10960.5  1484.7
    5991.5  24245.9  10881.5  1398.7
    5992.47  24257.9  10530.5  1309.7
    5993.52  24306.9  9279.5  1123.7
    5994.49  24302.9  6381.5   757.7
    5995.47  24317.9  7042.5   823.7
    5996.51  24332.9  9793.5  1141.7
    5997.49  24345.9  10498.5  1222.7
    5998.54  24332.9  10664.5  1221.7
    5999.51  24331.9  10589.5  1172.7
    6000.49  24254.9  10302.5  1094.7
    6001.46  24037.9  9906.5  1014.7
    6002.51  24020.9  9733.5   965.7
    6003.49  24289.9  9894.5   958.7
    6004.47  24310.9  9935.5   943.7
    6005.52  24310.9  9823.5   915.7
    6006.5  24291.9  9543.5   874.7
    6007.47  24307.9  9067.5   817.7
    6008.53  24282.9  8150.5   719.7
    6009.5  24294.9  7288.5   634.7
    6010.94  24293.7  6544.26   559.465
    6012.82  24302.8  6316.3   555.581
    6014.78  24284  6382.38   587.812
    6016.81  24323.3  6313.51   587.16
    6018.93  24324.7  6043.68   549.624
    6021.12  24379.2  5934.88   531.203
    6023.39  24426.8  5747.13   519.897
    6025.73  24476.6  5747.43   522.708
    6028.16  24539.4  5761.76   515.635
    6030.58  24612.3  5739.14   508.678
    6033.16  24696.4  5739.55   503.837
    6035.82  24751.5  5682.01   500.111
    6038.56  24862.8  5550.51   483.501
    6041.37  24933.1  5523.06   478.008
    6044.26  25052.6  5764.64   502.63
    6047.24  25171.1  6162.26   540.368
    6050.29  25279.8  6438.93   572.221
    6053.42  25423.5  6696.64   608.191
    6056.56  25537.4  6884.39   639.277
    6059.85  25674.4  7110.18   669.478
    6063.22  25762.4  7320.02   692.795
    6066.68  25905.6  7517.9   704.229
    6070.13  26084.9  7647.81   698.777
    6073.75  26270.3  7706.77   695.441
    6077.37  26448.8  7743.78   711.222
    6081.15  26656.4  7785.82   737.119
    6084.93  26831.1  7850.91   762.131
    6088.8  27016.9  7959.03   769.26
    6092.83  27246.8  8089.2   753.503
    6096.86  27458.8  8189.41   728.864
    6100.98  27679.9  8259.67   720.339
    6105.18  27921.1  8317.96   736.931
    6109.46  28182.4  8384.3   777.639
    6113.83  28430.8  8462.67   816.461
    6118.28  28674.4  8521.1   831.401
    6122.74  28940  8598.55   836.456
    6127.36  29215.7  8741.05   850.626
    6131.99  29503.6  8948.6   882.914
    6136.79  29788.5  9203.19   917.316
    6141.59  30097.6  9473.81   940.834
    6146.48  30358.7  9723.48   960.469
    6151.46  30689  9987.2   976.219
    6156.53  30988.3  10239.9   998.085
    6161.6  31300.8  10495.7  1009.07
    6166.84  31644.3  10761.6  1017.17
    6172.1  31960  11025.5  1061.38
    6177.52  32291.8  11305.4  1115.71
    6182.95  32620.7  11560.3  1168.15
    6188.47  32979.6  11824.3  1205.71
    6194.08  33335.7  12081.4  1236.39
    6199.7  33701.9  12338.5  1271.19
    6205.5  34049.2  12586.6  1305.09
    6211.3  34454.6  12848.8  1348.12
    6217.2  34823.1  13111  1384.26
    6223.19  35197.7  13379.2  1404.52
    6229.2  35613.4  13661.5  1419.89
    6235.38  35791.2  13853.9  1421.38
    6241.56  35482.1  13876.3  1412.98
    6247.85  36761.1  14531.7  1484.7
    6254.23  37203.2  14875.1  1549.54
    6260.71  37633.5  15237.6  1628.49
    6267.2  38075.8  15620.2  1685.56
    6273.79  38492.2  16007.8  1731.74
    6280.48  38936.8  16411.4  1788.04
    6287.26  39356.4  16831.1  1838.45
    6294.06  39801.1  17266.8  1890.98
    6300.95  40234  17706.5  1955.63
    6307.95  40691.9  18161.3  2018.39
    6315.05  41134  18621.2  2072.27
    6322.16  41591.1  19089.1  2118.27
    6329.38  42095.4  19576  2173.38
    6336.69  42549.8  20064.9  2227.6
    6344.11  43023.2  20541  2293.94
    6351.55  43511.8  21038  2369.4
    6359.09  43962.5  21525.1  2443.97
    6366.65  44433.3  22029.2  2532.66
    6374.31  44936.1  22554.4  2613.47
    6382.07  45399.1  23072.6  2683.39
    6389.95  45873.2  23616.9  2758.43
    6397.84  46347.4  24168.2  2836.58
    6405.84  46841.7  24748.5  2913.85
    6413.95  47316.1  25333.9  2995.23
    6422.08  47820.6  25952.3  3088.73
    6430.32  48247.2  26545.8  3170.35
    6438.58  48756.9  27216.3  3252.08
    6446.95  49189.7  27852.8  3345.93
    6455.43  49652.7  28539.4  3457.9
    6463.93  50174.7  29268  3570.97
    6472.55  50628.8  29986.7  3676.17
    6481.28  51104  30717.4  3787.48
    6490.03  51602.4  31492.2  3904.91
    6498.9  52074.8  32260  4012.45
    6507.79  52588.4  33048.8  4131.11
    6516.8  53018  33810.7  4251.89
    6525.92  53476.8  34599.6  4384.77
    6535.07  53960.6  35407.6  4511.78
    6544.25  54395.6  36208.6  4632.9
    6553.54  54855.6  37028.7  4753.14
    6562.95  55281.8  37846.7  4881.5
    6572.4  55749.1  38703.9  5014.97
    6581.96  56227.4  39590  5161.55
    6591.55  56687.9  40495.3  5310.26
    6601.26  57180.5  41418.5  5461.07
    6611.09  57633.2  42358.8  5614.01
    6620.95  58120  43327.2  5762.06
    6630.85  58580.8  44291.6  5919.22
    6640.87  58923.8  45211  6079.5
    6650.92  59364.9  46222.4  6254.9
    6661.1  59816.1  47259  6429.41
    6671.31  60218.4  48267.5  6601.04
    6681.64  60607.8  49294.1  6770.79
    6692.01  60808.4  50183.7  6926.65
    6702.51  57895  48399.4  6713.62
    6713.04  62528.7  53136.1  7401.72
    6723.7  62525.5  53929.9  7547.92
    6734.4  62606.4  54819.7  7712.24
    6745.14  63134.5  56091.5  7933.68
    6756  62544.6  56416.4  8029.24
    6766.91  64110.9  58667.3  8391.91
    6777.94  64591.2  59978.3  8622.7
    6789.02  64617.6  60891.3  8798.61
    6800.23  64315.2  61503.4  8942.62
    6811.48  66898.8  64938.4  9488.76
    6822.77  66323.6  65310.6  9593
    6834.19  66483.5  66450.8  9807.37
    6845.66  66807.4  67782  10059.9
    6857.16  67087.5  69098.2  10314.5
    6868.81  67345.7  70427.5  10574.2
    6880.5  67667.9  71852.9  10838
    6892.33  67950.3  73258.3  11106.9
    6904.2  68235.8  74705.7  11387
    6916.11  68402.4  76017.2  11654.2
    6928.18  68588.1  77403.7  11926.5
    6940.28  68871.9  78919.2  12234.9
    6952.43  69080.8  80363.8  12518.4
    6964.62  69338.8  81894.4  12828
    6976.96  69627.9  83454.1  13138.8
    6989.35  69807.1  84906.8  13420.7
    7001.88  70067.4  86460.6  13741.7
    7014.47  70247.8  87958.4  14049.8
    7027.1  70396.3  89452.2  14359
    7039.77  70571  90988.1  14673.3
    7052.6  70677.7  92467.1  14989.8
    7065.48  70781.5  93960  15302.4
    7078.41  70963.5  95544  15643
    7091.39  71079.5  97091.1  15975.8
    7104.53  71245.6  98719.2  16332.8
    7111.06  71306.5  99522.5  16502.5

File: k2cro4_rt_003.xdi
# XDI/1.0
# Column.1: energy eV
# Column.2: i0
# Column.3: itrans
# Column.4: irefer
# Beamline.name: SSRL 2-3
# Beamline.notes: vert slits = 0.6mm
# Detector.I0: N2 15cm
# Detector.I1: N2 30cm
# Detector.I2: N2 15cm
# Element.edge: K
# Element.symbol: Cr
# Mono.d_spacing: 3.13550
# Mono.name: Si(111)
# Mono.notes: unfocused, detuned 75%, clockwise at E=5990eV
# Sample.formula: K2CrO4
# Sample.name: K2CrO4
# Sample.prep: powder on tape (5 layers)
# Sample.reference: Cr foil
# Sample.temperature: room temperature
# Scan.start_time: 1997-04-17 22:36:29
# ///
#    Note: mono d_spacing is nominal!
#     exafs to K16
#     396  E XMU XMUR I0
#-------------
#   energy   i0   itrans  irefer
    5759.99  25253.9  7299.5   930.7
    5780.01  25223.9  7623.5   983.7
    5799.97  25154.9  7936.5  1038.7
    5820  25073.9  8254.5  1091.7
    5839.97  24990.9  8584.5  1149.7
    5860.02  24917.9  8931.5  1209.7
    5879.99  24842.9  9278.5  1271.7
    5899.97  24770.9  9639.5  1336.7
    5920.02  24677.9  9996.5  1401.7
    5939.99  24579.9  10351.5  1469.7
    5959.97  24476.9  10705.5  1535.7
    5970.49  24391.9  10874.5  1569.7
    5971.53  24244.9  10832.5  1564.7
    5972.49  24030.9  10754.5  1552.7
    5973.53  24299.9  10896.5  1573.7
    5974.5  24431.9  10972.5  1584.7
    5975.46  24441.9  10994.5  1590.7
    5976.51  24432.9  11010.5  1592.7
    5977.47  24435.9  11030.5  1597.7
    5978.52  24431.9  11044.5  1598.7
    5979.48  24438.9  11065.5  1601.7
    5980.53  24428.9  11079.5  1604.7
    5981.49  24438.9  11097.5  1607.7
    5982.46  24445.9  11115.5  1609.7
    5983.51  24468.9  11144.5  1614.7
    5984.48  24460.9  11154.5  1616.7
    5985.52  24282.9  11081.5  1604.7
    5986.49  23239.9  10613.5  1535.7
    5987.46  21147.9  9664.5  1395.7
    5988.51  23096.9  10544.5  1514.7
    5989.48  23798.9  10849.5  1537.7
    5990.53  24064.9  10922.5  1477.7
    5991.5  24136.9  10831.5  1395.7
    5992.47  24160.9  10484.5  1305.7
    5993.52  24192.9  9233.5  1119.7
    5994.49  24198.9  6355.5   758.7
    5995.47  24210.9  6998.5   821.7
    5996.51  24209.9  9744.5  1140.7
    5997.49  24211.9  10437.5  1218.7
    5998.54  24204.9  10609.5  1217.7
    5999.51  24201.9  10529.5  1167.7
    6000.49  24138.9  10257.5  1094.7
    6001.46  23902.9  9848.5  1010.7
    6002.51  23900.9  9681.5   964.7
    6003.49  24159.9  9838.5   956.7
    6004.47  24189.9  9884.5   941.7
    6005.52  24183.9  9772.5   913.7
    6006.5  24170.9  9498.5   872.7
    6007.47  24165.9  9023.5   816.7
    6008.53  24164.9  8123.5   722.7
    6009.5  24163.9  7261.5   636.7
    6010.94  24153.7  6510.26   557.465
    6012.82  24150.8  6274.3   553.581
    6014.78  24145  6343.38   586.811
    6016.81  24194.3  6279.51   587.16
    6018.93  24203.7  6013.67   552.624
    6021.12  24267.2  5906.88   533.203
    6023.39  24292.8  5718.13   518.897
    6025.73  24369.6  5721.43   523.708
    6028.16  24414.4  5730.76   517.635
    6030.58  24481.3  5706.13   507.678
    6033.16  24559.4  5705.55   504.837
    6035.82  24639.5  5650.01   499.111
    6038.56  24734.8  5517.51   484.501
    6041.37  24799.1  5491.06   479.008
    6044.26  24923.6  5730.64   504.63
    6047.24  25030.1  6121.26   544.368
    6050.29  25162.8  6405.93   575.221
    6053.42  25299.5  6657.65   610.191
    6056.56  25403.4  6845.39   640.277
    6059.85  25556.4  7070.18   672.478
    6063.22  25635.4  7279.02   694.795
    6066.68  25767.6  7468.9   705.229
    6070.13  25968.9  7604.82   701.777
    6073.75  26111.3  7655.78   696.442
    6077.37  26300.8  7694.77   712.222
    6081.15  26502.4  7735.82   736.119
    6084.93  26698.1  7809.91   762.131
    6088.8  26896.9  7920.04   774.26
    6092.83  27130.8  8053.2   757.502
    6096.86  27336.8  8150.42   732.864
    6100.98  27549.9  8219.67   719.339
    6105.18  27803.1  8284.96   738.931
    6109.46  28059.4  8350.29   779.638
    6113.83  28281.8  8422.67   815.461
    6118.28  28538.4  8481.1   833.401
    6122.74  28805  8562.55   839.455
    6127.36  29072.7  8704.05   853.627
    6131.99  29337.6  8899.6   886.913
    6136.79  29648.5  9163.19   919.316
    6141.59  29939.6  9419.82   944.835
    6146.48  30229.7  9681.48   966.47
    6151.46  30547  9941.2   980.22
    6156.53  30878.3  10203.9  1002.08
    6161.6  31188.8  10458.7  1013.07
    6166.84  31512.3  10721.6  1021.17
    6172.1  31824  10986.5  1064.38
    6177.52  32156.8  11256.4  1117.71
    6182.95  32515.7  11528.3  1167.15
    6188.47  32870.6  11789.3  1205.71
    6194.08  33228.7  12047.4  1236.39
    6199.7  33575.9  12293.5  1272.19
    6205.5  33966.2  12550.6  1309.09
    6211.3  34301.6  12798.8  1350.12
    6217.2  34719.1  13072  1390.26
    6223.19  35116.7  13349.2  1409.52
    6229.2  35487.4  13611.5  1423.89
    6235.38  35663.2  13800.9  1423.38
    6241.56  35362.1  13834.3  1415.98
    6247.85  36643.1  14482.7  1487.7
    6254.23  37092.2  14831.1  1555.54
    6260.71  37520.5  15189.6  1635.49
    6267.2  37938.8  15567.2  1685.56
    6273.79  38348.2  15946.8  1733.74
    6280.48  38796.8  16354.4  1793.04
    6287.26  39258.4  16791.1  1843.45
    6294.06  39680.1  17219.8  1895.98
    6300.95  40117  17647.5  1961.63
    6307.95  40563.9  18105.3  2023.39
    6315.05  41003  18559.2  2078.27
    6322.16  41445.1  19018.1  2118.26
    6329.38  41922.4  19503  2170.37
    6336.69  42378.8  19985.9  2226.6
    6344.11  42869.2  20480  2294.94
    6351.55  43315.8  20952  2368.4
    6359.09  43815.5  21465.1  2447.97
    6366.65  44251.3  21942.2  2531.66
    6374.31  44724.1  22445.4  2609.47
    6382.07  45240.1  22988.6  2681.39
    6389.95  45702.2  23521.9  2755.43
    6397.84  46187.4  24073.2  2833.58
    6405.84  46671.7  24654.5  2907.85
    6413.95  47154.1  25244.9  2995.23
    6422.08  47604.6  25835.3  3084.73
    6430.32  48068.2  26443.8  3170.35
    6438.58  48546.9  27082.3  3245.08
    6446.95  49034.7  27758.8  3339.93
    6455.43  49531.7  28456.4  3449.89
    6463.93  50059.7  29200  3567.98
    6472.55  50478.8  29891.7  3668.17
    6481.28  50985  30643.4  3782.48
    6490.03  51463.4  31406.2  3897.91
    6498.9  51950.8  32187  4009.45
    6507.79  52438.4  32958.8  4122.11
    6516.8  52884  33719.7  4244.88
    6525.92  53387.8  34542.6  4377.78
    6535.07  53857.6  35351.6  4501.78
    6544.25  54257.6  36114.6  4616.9
    6553.54  54674.6  36907.7  4732.14
    6562.95  55096.8  37727.7  4860.5
    6572.4  55624.1  38621.9  4998.97
    6581.96  56050.4  39472  5147.55
    6591.55  56551.9  40380.3  5292.25
    6601.26  57005.5  41306.5  5447.07
    6611.09  57455.2  42225.8  5593.01
    6620.95  57938  43195.2  5747.06
    6630.85  58426.8  44182.6  5902.22
    6640.87  58814.8  45119  6062.5
    6650.92  59287.9  46139.4  6232.9
    6661.1  59734.1  47170.9  6409.41
    6671.31  60108.4  48159.5  6573.04
    6681.64  60514.8  49219.1  6750.78
    6692.01  60727.4  50119.7  6915.65
    6702.51  57846  48370.4  6710.62
    6713.04  62497.7  53116.1  7395.71
    6723.7  62379.5  53824.9  7533.92
    6734.4  62477.4  54696.7  7700.24
    6745.14  62988.5  55954.5  7921.69
    6756  62502.6  56371.4  8026.24
    6766.91  63963.9  58537.3  8377.91
    6777.94  64500.2  59890.3  8614.69
    6789.02  64583.6  60854.3  8800.61
    6800.23  64247.2  61432.4  8934.62
    6811.48  66831.8  64883.4  9487.76
    6822.77  66354.6  65357.6  9604.01
    6834.19  66517.5  66499.8  9830.38
    6845.66  66795.4  67766  10061.9
    6857.16  67088.5  69105.2  10310.5
    6868.81  67324.7  70397.5  10561.2
    6880.5  67756.9  71950.9  10843
    6892.33  68034.3  73334.3  11115.9
    6904.2  68364.8  74806.7  11406
    6916.11  68604.4  76225.2  11688.2
    6928.18  68774.1  77581.7  11948.5
    6940.28  69034.9  79071.2  12244.9
    6952.43  69239.8  80531.8  12529.4
    6964.62  69488.8  82036.4  12830.1
    6976.96  69767.9  83601.1  13134.8
    6989.35  70007.1  85137.8  13435.7
    7001.88  70237.4  86648.6  13759.7
    7014.47  70383.8  88110.4  14066.8
    7027.1  70551.3  89645.3  14378
    7039.77  70809  91243.1  14706.3
    7052.6  71004.7  92843.1  15039.8
    7065.48  71138.5  94358  15359.3
    7078.41  71354.5  96029  15709
    7091.39  71505.5  97603.1  16055.8
    7104.53  71583.6  99139.2  16394.7
    7111.06  71620.5  99902.5  16556.5

File: na2cro4_15K_001.xdi
# XDI/1.0
# Column.1: energy eV
# Column.2: i0
# Column.3: itrans
# Column.4: irefer
# Beamline.name: SSRL 2-3
# Beamline.notes: vert slits = 0.6mm
# Detector.I0: N2 15cm
# Detector.I1: N2 30cm
# Detector.I2: N2 15cm
# Element.edge: K
# Element.symbol: Cr
# Mono.d_spacing: 3.13550
# Mono.name: Si(111)
# Mono.notes: unfocused, detuned 75%, clockwise at E=5990eV
# Sample.formula: Na2CrO4
# Sample.name: Na2CrO4
# Sample.prep: powder on tape (4 layers)
# Sample.reference: Cr foil
# Sample.temperature: 15K
# Scan.start_time: 1997-04-18 15:04:31
# ///
#    Note: mono d_spacing is nominal!
#     exafs to K16
#     396  E XMU XMUR I0
#-------------
#   energy   i0   itrans  irefer
    5759.99  239152  12307.7  1562.3
    5780.01  238831  12781.7  1642.3
    5799.97  238361  13260.7  1726.3
    5820  238033  13759.7  1812.3
    5839.97  237529  14259.7  1902.3
    5860.02  236982  14769.7  1993.3
    5879.99  236263  15282.7  2088.3
    5899.97  235667  15809.7  2185.3
    5920.02  234907  16336.7  2284.3
    5939.99  234283  16871.7  2387.3
    5959.97  233463  17402.7  2486.3
    5970.49  232819  17650.7  2536.3
    5971.53  231999  17622.7  2531.3
    5972.49  229070  17429.7  2508.3
    5973.53  230817  17580.7  2528.3
    5974.5  232753  17765.7  2554.3
    5975.46  232859  17794.7  2559.3
    5976.51  232919  17826.7  2565.3
    5977.47  232672  17835.7  2569.3
    5978.52  232790  17874.7  2576.3
    5979.48  232719  17893.7  2577.3
    5980.53  232561  17910.7  2579.3
    5981.49  232939  17965.7  2588.3
    5982.46  233022  17997.7  2591.3
    5983.51  233001  18020.7  2597.3
    5984.48  233175  18060.7  2601.3
    5985.52  232262  18016.7  2596.3
    5986.49  224236  17422.7  2505.3
    5987.46  201347  15644.7  2248.3
    5988.51  217227  16895.7  2418.3
    5989.48  226620  17627.7  2498.3
    5990.53  229214  17812.7  2425.3
    5991.5  229875  17783.7  2299.3
    5992.47  230497  17633.7  2196.3
    5993.52  230519  16956.7  2050.3
    5994.49  230416  14729.7  1742.3
    5995.47  230673  14349.7  1673.3
    5996.51  230368  16840.7  1954.3
    5997.49  230344  17490.7  2029.3
    5998.54  230363  17623.7  2018.3
    5999.51  230020  17501.7  1941.3
    6000.49  229810  17261.7  1840.3
    6001.46  227563  16810.7  1723.3
    6002.51  226547  16522.7  1637.3
    6003.49  229604  16526.7  1598.3
    6004.47  230046  16260.7  1538.3
    6005.52  230016  15848.7  1468.3
    6006.5  229948  15379.7  1401.3
    6007.47  229970  14827.7  1326.3
    6008.53  229766  14158.7  1242.3
    6009.5  229963  13668.7  1176.3
    6010.94  229717  13151.5  1105.06
    6012.82  229732  12769.5  1100.18
    6014.78  229997  12780.6  1158.42
    6016.81  230005  12777.8  1171.77
    6018.93  230469  12731  1145.23
    6021.12  230758  12699.3  1120.82
    6023.39  230945  12694.6  1129.52
    6025.73  231491  12674  1138.34
    6028.16  232293  12706.4  1124.27
    6030.58  232712  12868.9  1123.32
    6033.16  233481  13052.5  1130.49
    6035.82  234312  13137  1140.77
    6038.56  235339  13198.7  1138.18
    6041.37  236075  13297.4  1137.69
    6044.26  237304  13619.2  1171.33
    6047.24  238230  13958  1210.08
    6050.29  239605  14193.9  1244.95
    6053.42  240463  14383.8  1290.94
    6056.56  241869  14668.8  1344.04
    6059.85  243171  14934.8  1390.26
    6063.22  244057  15146.9  1418.6
    6066.68  245312  15347  1422.05
    6070.13  246866  15559.2  1408.62
    6073.75  248491  15735.5  1397.31
    6077.37  250457  15925.8  1441.11
    6081.15  252339  16098.1  1499.03
    6084.93  254191  16274.6  1558.07
    6088.8  256130  16497  1582.22
    6092.83  257977  16761.5  1548.5
    6096.86  260173  17044.1  1505.88
    6100.98  262749  17334.8  1491.39
    6105.18  265183  17582.4  1540.01
    6109.46  267079  17719.2  1626.75
    6113.83  269718  17938  1715.6
    6118.28  272468  18255.8  1771.57
    6122.74  275219  18556.7  1790.66
    6127.36  277814  18840.7  1821.87
    6131.99  280322  19149.7  1876.19
    6136.79  283007  19518.8  1927.63
    6141.59  285886  19938.9  1967.18
    6146.48  288851  20378.1  2000.86
    6151.46  291851  20801.3  2019.65
    6156.53  295021  21248.6  2057.55
    6161.6  298096  21680.9  2071.58
    6166.84  301198  22143.3  2081.72
    6172.1  304462  22635.8  2157.97
    6177.52  307988  23136.3  2272.35
    6182.95  311606  23650.8  2368.84
    6188.47  314884  24174.4  2443.45
    6194.08  318051  24689.1  2510.17
    6199.7  321326  25187.8  2581.01
    6205.5  325155  25717.6  2651.97
    6211.3  328869  26242.4  2740.04
    6217.2  332427  26748.3  2817.24
    6223.19  335949  27262.3  2855.55
    6229.2  339604  27776.2  2879.97
    6235.38  342844  28293.3  2894.51
    6241.56  338354  28181.4  2855.17
    6247.85  349848  29431.5  2987.94
    6254.23  354624  30120.8  3125.84
    6260.71  358078  30733  3272.85
    6267.2  360914  31313.3  3357.97
    6273.79  365567  32052.7  3452.22
    6280.48  368919  32705.1  3544.58
    6287.26  374194  33546.6  3644.05
    6294.06  375588  34037.1  3710.64
    6300.95  379113  34747.7  3820.35
    6307.95  384033  35629.4  3944.18
    6315.05  388444  36444.1  4040.13
    6322.16  392148  37237.8  4110.18
    6329.38  396551  38068.6  4192.36
    6336.69  400325  38863.5  4285.66
    6344.11  404623  39725.4  4407.07
    6351.55  409584  40645.4  4546.6
    6359.09  413940  41529.4  4690.24
    6366.65  418202  42405.5  4843
    6374.31  423475  43392.6  4998.89
    6382.07  428087  44345.8  5126.88
    6389.95  433422  45399.1  5268.99
    6397.84  438091  46380.4  5408.22
    6405.84  444389  47585.7  5567.56
    6413.95  450672  48824.1  5732.03
    6422.08  454258  49809.6  5882.61
    6430.32  458698  50884.1  6035.31
    6438.58  462846  51954.7  6163.12
    6446.95  467808  53152.3  6334.05
    6455.43  473623  54467  6545.09
    6463.93  480005  55898.7  6761.26
    6472.55  483439  56988.5  6933.54
    6481.28  489414  58431.4  7148.94
    6490.03  492973  59593.3  7333.45
    6498.9  496360  60728.2  7502.08
    6507.79  505819  62651.2  7772.82
    6516.8  511493  64132.2  8007.69
    6525.92  514447  65299.4  8209.68
    6535.07  520549  66884.5  8450.77
    6544.25  516072  67093.8  8514.99
    6553.54  516917  68016  8661.31
    6562.95  520717  69358.4  8874.77
    6572.4  526761  71015.7  9140.33
    6581.96  531039  72468.2  9386.01
    6591.55  534731  73847.7  9616.81
    6601.26  536973  75055.2  9831.73
    6611.09  541722  76670.8  10087.8
    6620.95  546405  78297.5  10356.9
    6630.85  553761  80309.2  10672.2
    6640.87  557754  81880  10943.6
    6650.92  561671  83475.8  11215.1
    6661.1  567592  85384.7  11540.7
    6671.31  570513  86898.6  11813.4
    6681.64  574296  88525.5  12092.3
    6692.01  576767  89987.6  12348.2
    6702.51  557084  88091.7  12141.3
    6713.04  593572  94922.8  13149.5
    6723.7  596893  96633.1  13453.8
    6734.4  599204  98206.3  13753.3
    6745.14  606875  100705  14172.8
    6756  591266  99339  14060.5
    6766.91  616498  104911  14929.3
    6777.94  623809  107475  15388.2
    6789.02  626058  109247  15720.2
    6800.23  627322  110800  16030.3
    6811.48  647565  115827  16843.6
    6822.77  643550  116585  17045.9
    6834.19  647287  118758  17460.4
    6845.66  653576  121417  17936
    6857.16  660696  124281  18458.8
    6868.81  663434  126405  18864.6
    6880.5  671538  129600  19449.6
    6892.33  673745  131670  19864.6
    6904.2  677531  134114  20336.8
    6916.11  682935  136914  20874.1
    6928.18  682967  138668  21257.5
    6940.28  687778  141422  21811.1
    6952.43  690746  143817  22306.7
    6964.62  694041  146327  22805.5
    6976.96  695246  148441  23250.4
    6989.35  697415  150761  23738.4
    7001.88  699370  153033  24216.5
    7014.47  695686  154117  24527.8
    7027.1  701587  157316  25168.1
    7039.77  704690  159939  25715.5
    7052.6  710721  163310  26389.1
    7065.48  712742  165766  26926.9
    7078.41  715794  168496  27515.7
    7091.39  718072  171104  28087.6
    7104.53  715591  172583  28465.7
    7111.06  713669  173160  28634.5