Folder: XASDataLibrary/data/Cr (part 13)

File: na2cro4_15K_002.xdi
# XDI/1.0
# Column.1: energy eV
# Column.2: i0
# Column.3: itrans
# Column.4: irefer
# Beamline.name: SSRL 2-3
# Beamline.notes: vert slits = 0.6mm
# Detector.I0: N2 15cm
# Detector.I1: N2 30cm
# Detector.I2: N2 15cm
# Element.edge: K
# Element.symbol: Cr
# Mono.d_spacing: 3.13550
# Mono.name: Si(111)
# Mono.notes: unfocused, detuned 75%, clockwise at E=5990eV
# Sample.formula: Na2CrO4
# Sample.name: Na2CrO4
# Sample.prep: powder on tape (4 layers)
# Sample.reference: Cr foil
# Sample.temperature: 15K
# Scan.start_time: 1997-04-18 15:04:31
# ///
#    Note: mono d_spacing is nominal!
#     exafs to K16
#     396  E XMU XMUR I0
#-------------
#   energy   i0   itrans  irefer
    5759.99  232309  11958.7  1517.3
    5780.01  231445  12386.7  1591.3
    5799.97  231466  12873.7  1675.3
    5820  230651  13330.7  1756.3
    5839.97  230010  13805.7  1841.3
    5860.02  229544  14307.7  1933.3
    5879.99  229058  14817.7  2025.3
    5899.97  227772  15279.7  2114.3
    5920.02  226797  15776.7  2209.3
    5939.99  226382  16300.7  2306.3
    5959.97  225256  16782.7  2401.3
    5970.49  224952  17058.7  2452.3
    5971.53  224385  17045.7  2451.3
    5972.49  221613  16862.7  2425.3
    5973.53  224224  17075.7  2457.3
    5974.5  226212  17264.7  2485.3
    5975.46  226624  17312.7  2492.3
    5976.51  226638  17350.7  2501.3
    5977.47  226179  17345.7  2501.3
    5978.52  226240  17369.7  2505.3
    5979.48  226694  17430.7  2516.3
    5980.53  226475  17442.7  2517.3
    5981.49  226352  17459.7  2519.3
    5982.46  226790  17517.7  2526.3
    5983.51  228613  17691.7  2549.3
    5984.48  229267  17766.7  2559.3
    5985.52  228605  17728.7  2555.3
    5986.49  221320  17189.7  2474.3
    5987.46  199786  15520.7  2231.3
    5988.51  216692  16858.7  2412.3
    5989.48  225288  17523.7  2482.3
    5990.53  225934  17547.7  2381.3
    5991.5  227063  17550.7  2265.3
    5992.47  229094  17497.7  2178.3
    5993.52  229439  16788.7  2030.3
    5994.49  229170  14490.7  1717.3
    5995.47  229448  14424.7  1685.3
    5996.51  229272  16846.7  1960.3
    5997.49  229318  17432.7  2026.3
    5998.54  229326  17538.7  2012.3
    5999.51  229068  17413.7  1931.3
    6000.49  228932  17182.7  1832.3
    6001.46  226443  16718.7  1717.3
    6002.51  225990  16473.7  1637.3
    6003.49  229002  16467.7  1597.3
    6004.47  228968  16163.7  1536.3
    6005.52  229079  15764.7  1469.3
    6006.5  229019  15289.7  1401.3
    6007.47  228901  14735.7  1328.3
    6008.53  228824  14081.7  1245.3
    6009.5  228748  13582.7  1179.3
    6010.94  228941  13095.5  1111.06
    6012.82  228822  12712.5  1107.18
    6014.78  228779  12711.6  1159.42
    6016.81  228541  12691.8  1171.76
    6018.93  229133  12659  1148.23
    6021.12  229490  12624.3  1124.82
    6023.39  230231  12650.6  1133.52
    6025.73  230458  12607  1140.33
    6028.16  231126  12635.4  1128.27
    6030.58  231314  12776.9  1122.32
    6033.16  231898  12955.4  1129.49
    6035.82  233017  13058  1138.77
    6038.56  234172  13125.7  1138.18
    6041.37  235199  13238.4  1138.7
    6044.26  235861  13535.2  1170.33
    6047.24  236979  13879  1210.08
    6050.29  238180  14107.9  1244.95
    6053.42  239193  14309.8  1289.94
    6056.56  240839  14600.8  1347.04
    6059.85  242067  14862.8  1393.26
    6063.22  242758  15060.9  1419.6
    6066.68  244227  15274  1424.05
    6070.13  245959  15500.2  1411.62
    6073.75  247659  15678.5  1400.31
    6077.37  249302  15845.8  1444.11
    6081.15  251695  16050.1  1503.03
    6084.93  253314  16218.6  1562.07
    6088.8  255622  16456  1587.22
    6092.83  257639  16729.5  1554.49
    6096.86  259827  17022.1  1511.88
    6100.98  261749  17266.7  1493.39
    6105.18  264102  17509.4  1541.01
    6109.46  266640  17678.2  1628.74
    6113.83  268907  17891  1713.6
    6118.28  271443  18182.8  1767.57
    6122.74  274097  18475.7  1785.66
    6127.36  276498  18741.7  1813.87
    6131.99  279202  19072.7  1871.19
    6136.79  281822  19436.8  1922.63
    6141.59  284718  19857.9  1960.18
    6146.48  287572  20283.1  1991.86
    6151.46  290574  20705.3  2012.65
    6156.53  293754  21157.6  2048.55
    6161.6  296869  21599.9  2062.58
    6166.84  299978  22048.3  2069.72
    6172.1  303148  22535.8  2147.98
    6177.52  306508  23029.3  2261.35
    6182.95  309516  23490.8  2352.84
    6188.47  313039  24037.4  2441.45
    6194.08  316727  24591.1  2514.17
    6199.7  320515  25139.8  2592.01
    6205.5  323654  25609.6  2654.97
    6211.3  327535  26142.4  2741.04
    6217.2  331464  26684.3  2821.23
    6223.19  335250  27210.2  2863.54
    6229.2  338892  27729.2  2886.97
    6235.38  341174  28167.3  2896.51
    6241.56  337831  28145.4  2864.17
    6247.85  350173  29461.6  3005.95
    6254.23  354547  30126.7  3144.84
    6260.71  358538  30793  3297.85
    6267.2  362694  31471.3  3397.97
    6273.79  366933  32201.7  3489.22
    6280.48  371134  32910.1  3591.58
    6287.26  375308  33666.6  3682.05
    6294.06  379613  34433.1  3778.65
    6300.95  383782  35214.7  3901.36
    6307.95  387986  36015.4  4010.18
    6315.05  392688  36871.1  4110.13
    6322.16  397457  37750.8  4193.19
    6329.38  401993  38611.6  4278.37
    6336.69  405816  39408.5  4367.66
    6344.11  410713  40339.4  4491.07
    6351.55  414724  41180.4  4630.6
    6359.09  419630  42118.4  4776.24
    6366.65  424320  43046.5  4937.01
    6374.31  428668  43935.7  5081.88
    6382.07  433243  44907.8  5209.88
    6389.95  436671  45761.1  5333.99
    6397.84  442627  46880.4  5495.22
    6405.84  447058  47900.7  5629.57
    6413.95  452184  49019.1  5786.03
    6422.08  456910  50121.6  5950.61
    6430.32  461535  51227.1  6106.3
    6438.58  466810  52447.7  6260.12
    6446.95  471526  53629.3  6426.05
    6455.43  475971  54787  6620.09
    6463.93  480538  56008.7  6819.26
    6472.55  485096  57231.5  7004.54
    6481.28  490608  58622.3  7216.93
    6490.03  495883  59986.2  7430.45
    6498.9  500037  61235.2  7609.08
    6507.79  504355  62530.2  7807.83
    6516.8  509611  63972.3  8042.69
    6525.92  513987  65300.4  8259.67
    6535.07  519589  66827.5  8500.77
    6544.25  523892  68173.7  8707.98
    6553.54  528318  69579  8919.32
    6562.95  532820  71039.3  9143.76
    6572.4  537400  72508.8  9382.33
    6581.96  542891  74157.2  9654.01
    6591.55  547449  75685.7  9909.81
    6601.26  551857  77229.2  10175.7
    6611.09  556791  78880.8  10434.8
    6620.95  562112  80636.5  10728.9
    6630.85  565275  82067.2  10974.2
    6640.87  570073  83781  11265.6
    6650.92  574116  85425.8  11553.1
    6661.1  579742  87322.7  11878.7
    6671.31  584001  89047.6  12172.4
    6681.64  587351  90658.6  12451.3
    6692.01  589763  92132.6  12717.2
    6702.51  569606  90191.7  12501.3
    6713.04  607342  97233.8  13540.5
    6723.7  608081  98551  13791.8
    6734.4  609070  99948.4  14062.3
    6745.14  615142  102200  14453.8
    6756  600862  101068  14371.5
    6766.91  625601  106574  15236.3
    6777.94  631250  108902  15654.2
    6789.02  632115  110416  15949.2
    6800.23  630512  111508  16202.3
    6811.48  652888  116921  17076.6
    6822.77  649851  117866  17302.9
    6834.19  652006  119778  17671.4
    6845.66  654875  121828  18071
    6857.16  658395  124045  18489.8
    6868.81  661282  126169  18908.6
    6880.5  664838  128480  19360.5
    6892.33  668505  130838  19815.6
    6904.2  671903  133153  20273.8
    6916.11  674047  135291  20703.1
    6928.18  676491  137517  21165.5
    6940.28  680085  140033  21666
    6952.43  682083  142232  22130.7
    6964.62  685308  144696  22635.5
    6976.96  688727  147263  23154.4
    6989.35  691094  149583  23645.4
    7001.88  694165  152110  24172.5
    7014.47  695770  154353  24650.7
    7027.1  698798  156922  25179.1
    7039.77  701383  159386  25706.6
    7052.6  702882  161712  26222.2
    7065.48  705913  164401  26787.9
    7078.41  708584  167038  27356.7
    7091.39  711365  169696  27944.6
    7104.53  712024  171947  28463.7
    7111.06  712860  173185  28741.5

File: na2cro4_100K_001.xdi
# XDI/1.0
# Column.1: energy eV
# Column.2: i0
# Column.3: itrans
# Column.4: irefer
# Beamline.name: SSRL 2-3
# Beamline.notes: vert slits = 0.6mm
# Detector.I0: N2 15cm
# Detector.I1: N2 30cm
# Detector.I2: N2 15cm
# Element.edge: K
# Element.symbol: Cr
# Mono.d_spacing: 3.13550
# Mono.name: Si(111)
# Mono.notes: unfocused, detuned 75%, clockwise at E=5990eV
# Sample.formula: Na2CrO4
# Sample.name: Na2CrO4
# Sample.prep: powder on tape (5 layers)
# Sample.reference: Cr foil
# Sample.temperature: 100K
# Scan.start_time: 1997-04-18 19:10:23
# ///
#    Note: mono d_spacing is nominal!
#     exafs to K16
#     396  E XMU XMUR I0
#-------------
#   energy   i0   itrans  irefer
    5759.99  217667  15041.7  1917.3
    5780.01  217085  15548.7  2006.3
    5799.97  216638  16077.7  2103.3
    5820  216216  16626.7  2201.3
    5839.97  216074  17208.7  2304.3
    5860.02  215653  17775.7  2411.3
    5879.99  215145  18343.7  2518.3
    5899.97  214534  18925.7  2629.3
    5920.02  214081  19517.7  2744.3
    5939.99  213240  20083.7  2854.3
    5959.97  212696  20665.7  2965.3
    5970.49  211984  20931.7  3018.3
    5971.53  210352  20796.7  3004.3
    5972.49  208416  20632.7  2980.3
    5973.53  211176  20936.7  3026.3
    5974.5  212090  21054.7  3044.3
    5975.46  212137  21098.7  3052.3
    5976.51  212171  21134.7  3057.3
    5977.47  212168  21155.7  3063.3
    5978.52  212105  21178.7  3069.3
    5979.48  212345  21236.7  3077.3
    5980.53  212128  21238.7  3076.3
    5981.49  212472  21310.7  3087.3
    5982.46  212292  21315.7  3088.3
    5983.51  212664  21382.7  3097.3
    5984.48  212445  21377.7  3096.3
    5985.52  211041  21274.7  3079.3
    5986.49  199742  20144.7  2913.3
    5987.46  184056  18582.7  2682.3
    5988.51  201517  20363.7  2922.3
    5989.48  207606  20978.7  2968.3
    5990.53  209323  21120.7  2841.3
    5991.5  209849  21070.7  2704.3
    5992.47  210205  20848.7  2588.3
    5993.52  210239  19842.7  2395.3
    5994.49  210342  17477.7  2067.3
    5995.47  210190  18564.7  2172.3
    5996.51  210420  20539.7  2397.3
    5997.49  210213  20902.7  2436.3
    5998.54  210466  20953.7  2393.3
    5999.51  210230  20779.7  2290.3
    6000.49  209389  20445.7  2164.3
    6001.46  207100  19957.7  2037.3
    6002.51  207966  19793.7  1957.3
    6003.49  209853  19678.7  1903.3
    6004.47  209892  19305.7  1830.3
    6005.52  210004  18839.7  1750.3
    6006.5  209871  18314.7  1671.3
    6007.47  209792  17741.7  1590.3
    6008.53  209759  17110.7  1506.3
    6009.5  209722  16633.7  1436.3
    6010.94  209675  16138.4  1371.06
    6012.82  209607  15884.5  1394.18
    6014.78  209873  15902.6  1459.41
    6016.81  210092  15949.8  1472.77
    6018.93  209995  15921  1440.23
    6021.12  210373  15902.3  1417.82
    6023.39  210884  15881.6  1426.52
    6025.73  211299  15900  1438.33
    6028.16  211763  16009.4  1425.27
    6030.58  212263  16188.9  1421.32
    6033.16  213050  16402.4  1431.49
    6035.82  213507  16545  1443.77
    6038.56  214651  16713.7  1449.18
    6041.37  215674  16903.4  1455.7
    6044.26  216459  17151.2  1487.33
    6047.24  217450  17437  1525.08
    6050.29  218650  17666.9  1563.95
    6053.42  219728  17949.8  1623.94
    6056.56  220960  18254.8  1689.04
    6059.85  222206  18542.8  1738.26
    6063.22  222533  18722.9  1765.6
    6066.68  223994  18971  1767.05
    6070.13  225726  19218.2  1750.62
    6073.75  227274  19426.5  1743.31
    6077.37  228749  19626.8  1794.11
    6081.15  230438  19858.1  1868.03
    6084.93  232490  20136.6  1945.07
    6088.8  234532  20435  1973.22
    6092.83  236031  20726.5  1924.49
    6096.86  237703  21019.1  1869.88
    6100.98  240139  21361.8  1854.39
    6105.18  242578  21676.4  1917.01
    6109.46  244785  21942.2  2034.74
    6113.83  247198  22247  2142.6
    6118.28  249325  22553.8  2199.57
    6122.74  251525  22877.7  2220.66
    6127.36  254132  23268.7  2261.87
    6131.99  256484  23662.7  2333.19
    6136.79  258994  24097.8  2394.63
    6141.59  261730  24556.9  2435.18
    6146.48  264576  25054.1  2473.86
    6151.46  267067  25518.3  2490.65
    6156.53  269969  26038.6  2531.55
    6161.6  272833  26555.9  2545.58
    6166.84  275643  27090.3  2554.72
    6172.1  278985  27696.8  2658.97
    6177.52  281809  28242.3  2786.35
    6182.95  284968  28847.8  2904.84
    6188.47  288049  29445.4  2993.45
    6194.08  291440  30068.1  3076.17
    6199.7  294574  30664.8  3159.01
    6205.5  298250  31304.6  3245.97
    6211.3  301675  31913.4  3350.05
    6217.2  304694  32492.3  3435.23
    6223.19  308005  33110.2  3482.54
    6229.2  311701  33765.2  3514.97
    6235.38  313058  34190.3  3511.51
    6241.56  310943  34236.4  3483.17
    6247.85  322715  35851.5  3656.95
    6254.23  326414  36589.7  3820.84
    6260.71  330319  37371  3998.85
    6267.2  333421  38080.3  4107.97
    6273.79  337332  38912.7  4210.22
    6280.48  341717  39813.1  4334.58
    6287.26  346030  40725.6  4448.05
    6294.06  349849  41598.2  4557.65
    6300.95  353831  42501.8  4698.36
    6307.95  357461  43381.4  4822.18
    6315.05  361788  44361.1  4938.13
    6322.16  365626  45298.8  5023.19
    6329.38  370175  46336.6  5128.37
    6336.69  374325  47326.5  5242.66
    6344.11  378736  48372.4  5394.08
    6351.55  383241  49441.4  5558.6
    6359.09  387496  50480.4  5722.24
    6366.65  391385  51467.5  5908.01
    6374.31  395942  52577.7  6082.89
    6382.07  399937  53644.9  6221.88
    6389.95  404671  54811.1  6382.99
    6397.84  409001  55978.4  6550.22
    6405.84  413647  57185.7  6716.57
    6413.95  417679  58356.1  6884.03
    6422.08  422102  59617.6  7074.61
    6430.32  426678  60893.1  7249.31
    6438.58  431158  62216.7  7412.11
    6446.95  435233  63497.3  7594.05
    6455.43  439695  64871  7823.09
    6463.93  444313  66266.7  8050.25
    6472.55  449266  67791.5  8281.54
    6481.28  453404  69190.4  8505.94
    6490.03  458370  70722.2  8747.45
    6498.9  462933  72240.2  8966.08
    6507.79  467605  73794.2  9199.83
    6516.8  472438  75378.2  9461.69
    6525.92  476971  76953.4  9724.68
    6535.07  481866  78586.6  9988.77
    6544.25  485100  80014.7  10206
    6553.54  488335  81441.1  10424.3
    6562.95  492526  83031.4  10678.8
    6572.4  496953  84709.8  10954.3
    6581.96  502895  86688.2  11280
    6591.55  507491  88452.7  11578.8
    6601.26  511365  90112.2  11861.7
    6611.09  516270  91975.8  12165.8
    6620.95  520769  93840.5  12473.9
    6630.85  524031  95477.2  12755.2
    6640.87  528655  97436.9  13076.6
    6650.92  532579  99231.8  13402.1
    6661.1  536359  101053  13715.7
    6671.31  541684  103213  14085.4
    6681.64  545124  105021  14400.3
    6692.01  549226  106994  14747.2
    6702.51  523930  103408  14316.3
    6713.04  563851  112344  15621.5
    6723.7  564896  113820  15906.8
    6734.4  566326  115405  16225.3
    6745.14  571182  117740  16631.8
    6756  570475  118932  16890.5
    6766.91  580713  122465  17484.3
    6777.94  585008  124801  17916.2
    6789.02  586917  126636  18281.2
    6800.23  585093  127689  18533.3
    6811.48  605069  133568  19492.6
    6822.77  602966  134658  19756.9
    6834.19  605170  136711  20161.4
    6845.66  608399  139022  20599
    6857.16  611795  141419  21056.7
    6868.81  615853  144028  21569.6
    6880.5  619262  146481  22056.5
    6892.33  621569  148769  22518.6
    6904.2  625771  151508  23049.8
    6916.11  628883  154032  23566.1
    6928.18  631119  156366  24052.5
    6940.28  634886  159171  24609.1
    6952.43  637741  161684  25141.7
    6964.62  639883  164129  25647.5
    6976.96  643520  166905  26212.4
    6989.35  646159  169501  26758.4
    7001.88  649153  172245  27326.5
    7014.47  652055  174961  27898.7
    7027.1  654668  177654  28470.1
    7039.77  657490  180390  29063.6
    7052.6  659810  183056  29655.1
    7065.48  662721  185911  30277.9
    7078.41  665463  188779  30905.7
    7091.39  667465  191453  31495.6
    7104.53  669773  194218  32131.7
    7111.06  670383  195494  32422.5

File: na2cro4_100K_002.xdi
# XDI/1.0
# Column.1: energy eV
# Column.2: i0
# Column.3: itrans
# Column.4: irefer
# Beamline.name: SSRL 2-3
# Beamline.notes: vert slits = 0.6mm
# Detector.I0: N2 15cm
# Detector.I1: N2 30cm
# Detector.I2: N2 15cm
# Element.edge: K
# Element.symbol: Cr
# Mono.d_spacing: 3.13550
# Mono.name: Si(111)
# Mono.notes: unfocused, detuned 75%, clockwise at E=5990eV
# Sample.formula: Na2CrO4
# Sample.name: Na2CrO4
# Sample.prep: powder on tape (5 layers)
# Sample.reference: Cr foil
# Sample.temperature: 100K
# Scan.start_time: 1997-04-18 19:10:23
# ///
#    Note: mono d_spacing is nominal!
#     exafs to K16
#     396  E XMU XMUR I0
#-------------
#   energy   i0   itrans  irefer
    5759.99  218057  15076.7  1927.3
    5780.01  217616  15599.7  2018.3
    5799.97  217200  16134.7  2111.3
    5820  216988  16698.7  2213.3
    5839.97  216509  17252.7  2315.3
    5860.02  215913  17804.7  2418.3
    5879.99  215264  18363.7  2525.3
    5899.97  214910  18957.7  2637.3
    5920.02  214193  19534.7  2747.3
    5939.99  213555  20106.7  2860.3
    5959.97  212911  20695.7  2975.3
    5970.49  212293  20959.7  3029.3
    5971.53  211000  20866.7  3017.3
    5972.49  208807  20680.7  2988.3
    5973.53  211954  21022.7  3042.3
    5974.5  212634  21123.7  3057.3
    5975.46  212750  21159.7  3062.3
    5976.51  212750  21192.7  3070.3
    5977.47  212657  21211.7  3072.3
    5978.52  212808  21259.7  3082.3
    5979.48  212661  21269.7  3081.3
    5980.53  212924  21331.7  3094.3
    5981.49  212814  21346.7  3094.3
    5982.46  212781  21370.7  3096.3
    5983.51  213061  21426.7  3108.3
    5984.48  212883  21439.7  3106.3
    5985.52  211437  21308.7  3085.3
    5986.49  200126  20196.7  2921.3
    5987.46  184523  18633.7  2691.3
    5988.51  202064  20422.7  2932.3
    5989.48  208040  21027.7  2976.3
    5990.53  210046  21193.7  2852.3
    5991.5  210405  21132.7  2713.3
    5992.47  210646  20894.7  2596.3
    5993.52  210527  19879.7  2403.3
    5994.49  210964  17549.7  2078.3
    5995.47  211237  18636.7  2182.3
    5996.51  211017  20590.7  2406.3
    5997.49  211233  21009.7  2450.3
    5998.54  210705  20987.7  2400.3
    5999.51  210947  20857.7  2302.3
    6000.49  209897  20503.7  2175.3
    6001.46  207490  20005.7  2045.3
    6002.51  208272  19832.7  1965.3
    6003.49  210333  19737.7  1915.3
    6004.47  210457  19375.7  1843.3
    6005.52  210443  18881.7  1761.3
    6006.5  210842  18410.7  1690.3
    6007.47  210329  17799.7  1603.3
    6008.53  210732  17207.7  1522.3
    6009.5  210933  16744.7  1451.3
    6010.94  210847  16246.5  1382.06
    6012.82  210919  15989.5  1403.18
    6014.78  210929  15993.6  1469.41
    6016.81  210974  16021.8  1482.76
    6018.93  211182  16015  1452.23
    6021.12  211526  15988.3  1427.82
    6023.39  211858  15966.6  1437.52
    6025.73  212476  15995  1452.34
    6028.16  213116  16116.4  1437.27
    6030.58  213746  16307.9  1437.32
    6033.16  214554  16524.4  1445.49
    6035.82  215343  16698  1459.77
    6038.56  215973  16828.7  1462.18
    6041.37  216728  16989.4  1467.69
    6044.26  217751  17258.2  1502.33
    6047.24  218766  17548  1539.08
    6050.29  219859  17770.8  1578.95
    6053.42  221022  18071.8  1640.94
    6056.56  222173  18365.8  1705.04
    6059.85  223627  18678.8  1760.26
    6063.22  224061  18867.9  1786.6
    6066.68  225208  19082  1786.05
    6070.13  226523  19298.2  1762.62
    6073.75  228315  19525.5  1757.31
    6077.37  229935  19740.8  1809.11
    6081.15  231626  19976.1  1885.03
    6084.93  233502  20234.6  1961.07
    6088.8  235014  20497  1982.22
    6092.83  237148  20841.6  1940.49
    6096.86  239143  21158.1  1886.88
    6100.98  241070  21461.8  1866.39
    6105.18  243530  21775.4  1930.01
    6109.46  245518  22018.2  2043.75
    6113.83  247827  22315  2151.6
    6118.28  250160  22630.8  2208.57
    6122.74  252543  22980.7  2232.66
    6127.36  254895  23346.7  2274.87
    6131.99  257148  23733.7  2343.19
    6136.79  260191  24205.8  2410.63
    6141.59  262556  24645.9  2448.19
    6146.48  265368  25143.1  2485.86
    6151.46  268269  25644.3  2507.65
    6156.53  271465  26190.6  2550.55
    6161.6  274193  26696.9  2560.58
    6166.84  277106  27246.3  2574.72
    6172.1  280246  27825.8  2674.98
    6177.52  282997  28377.3  2807.35
    6182.95  286352  29000.8  2923.84
    6188.47  289140  29571.4  3008.45
    6194.08  292344  30176.1  3089.17
    6199.7  295566  30771.8  3171.01
    6205.5  298955  31392.6  3259.97
    6211.3  302354  32017.4  3364.05
    6217.2  306005  32657.3  3456.23
    6223.19  309252  33265.2  3501.54
    6229.2  312761  33902.2  3529.97
    6235.38  314059  34330.3  3524.51
    6241.56  311864  34369.4  3498.17
    6247.85  323150  35920.5  3668.95
    6254.23  327604  36740.7  3838.84
    6260.71  331311  37502  4016.85
    6267.2  335349  38333.3  4135.97
    6273.79  339201  39139.7  4239.22
    6280.48  343393  40012.1  4360.58
    6287.26  347074  40867.6  4463.05
    6294.06  351199  41769.2  4580.65
    6300.95  355142  42676.7  4720.35
    6307.95  359227  43619.4  4853.18
    6315.05  363361  44589.1  4967.13
    6322.16  367603  45568.8  5059.19
    6329.38  371413  46510.6  5155.36
    6336.69  375555  47513.5  5272.66
    6344.11  379922  48557.5  5421.07
    6351.55  384066  49562.4  5579.6
    6359.09  388155  50581.4  5745.25
    6366.65  392794  51680.5  5941.01
    6374.31  397114  52751.6  6109.88
    6382.07  401517  53871.8  6260.88
    6389.95  405703  54987.1  6418.99
    6397.84  410047  56135.4  6584.22
    6405.84  414570  57354.7  6743.57
    6413.95  419320  58610.1  6923.03
    6422.08  423667  59871.6  7117.61
    6430.32  428343  61174.1  7295.31
    6438.58  432526  62459.7  7453.12
    6446.95  436962  63792.3  7646.04
    6455.43  441279  65136.9  7871.09
    6463.93  446004  66574.7  8103.26
    6472.55  450712  68043.5  8327.54
    6481.28  455320  69510.3  8562.93
    6490.03  460044  71044.3  8803.45
    6498.9  464572  72507.2  9016.08
    6507.79  468660  73975.2  9239.83
    6516.8  473072  75516.2  9495.69
    6525.92  477838  77134.3  9755.67
    6535.07  482532  78759.5  10015.8
    6544.25  486550  80283.8  10250
    6553.54  490397  81806  10482.3
    6562.95  494588  83430.4  10739.8
    6572.4  499565  85209.8  11025.3
    6581.96  504494  87004.2  11329
    6591.55  508736  88708.7  11620.8
    6601.26  512967  90458.3  11914.7
    6611.09  517607  92282.9  12210.8
    6620.95  521407  93994.5  12500.9
    6630.85  526478  95950.2  12819.2
    6640.87  530324  97748  13130.6
    6650.92  534554  99637.8  13461.1
    6661.1  538684  101543  13796.7
    6671.31  543015  103497  14130.4
    6681.64  546709  105366  14459.3
    6692.01  549466  107086  14765.2
    6702.51  525109  103669  14358.3
    6713.04  565435  112701  15679.5
    6723.7  566657  114219  15965.8
    6734.4  567705  115738  16265.3
    6745.14  573341  118204  16700.8
    6756  572468  119373  16966.5
    6766.91  582193  122848  17551.3
    6777.94  587798  125390  18004.2
    6789.02  589838  127325  18388.2
    6800.23  586985  128156  18613.3
    6811.48  606960  134043  19565.6
    6822.77  604648  135087  19826.9
    6834.19  607805  137367  20258.4
    6845.66  611133  139699  20703
    6857.16  613986  141961  21143.8
    6868.81  617437  144415  21622.6
    6880.5  621083  146980  22128.5
    6892.33  623889  149354  22605.6
    6904.2  627807  152070  23136.8
    6916.11  630309  154474  23627.1
    6928.18  632823  156863  24120.5
    6940.28  636617  159651  24692.1
    6952.43  638979  162061  25207.7
    6964.62  641838  164659  25751.5
    6976.96  645545  167522  26321.4
    6989.35  649097  170380  26910.4
    7001.88  651838  173034  27482.5
    7014.47  655001  175857  28063.7
    7027.1  657161  178382  28609.1
    7039.77  660269  181233  29215.6
    7052.6  663000  184023  29822.2
    7065.48  665233  186701  30427.9
    7078.41  667403  189386  31019.7
    7091.39  669493  192096  31626.6
    7104.53  671063  194708  32227.7
    7111.06  672387  196160  32543.5