Folder: XASDataLibrary/data/Cr (part 10)

File: k2cr2o7_rt_003.xdi
# XDI/1.0
# Column.1: energy eV
# Column.2: i0
# Column.3: itrans
# Column.4: irefer
# Beamline.name: SSRL 2-3
# Beamline.notes: vert slits = 0.6mm
# Detector.I0: N2 15cm
# Detector.I1: N2 30cm
# Detector.I2: N2 15cm
# Element.edge: K
# Element.symbol: Cr
# Mono.d_spacing: 3.13550
# Mono.name: Si(111)
# Mono.notes: unfocused, detuned 75%, clockwise at E=5990eV
# Sample.formula: K2Cr2O7
# Sample.name: K2Cr2O7
# Sample.prep: powder on tape (6 layers)
# Sample.reference: Cr foil
# Sample.temperature: room temp
# Scan.start_time: 1997-04-17 18:36:45
# ///
#    Note: mono d_spacing is nominal!
#     exafs to K16
#     396  E XMU XMUR I0
#-------------
#   energy   i0   itrans  irefer
    5759.99  25720.9  8986.5  1142.7
    5780.01  25627.9  9338.5  1201.7
    5799.97  25559.9  9716.5  1265.7
    5820  25471.9  10092.5  1332.7
    5839.97  25357.9  10469.5  1398.7
    5860.02  25276.9  10865.5  1469.7
    5879.99  25167.9  11267.5  1542.7
    5899.97  25065.9  11677.5  1616.7
    5920.02  24942.9  12078.5  1692.7
    5939.99  24803.9  12473.5  1767.7
    5959.97  24688.9  12875.5  1843.7
    5970.49  24593.9  13072.5  1881.7
    5971.53  24514.9  13048.5  1878.7
    5972.49  24262.9  12936.5  1862.7
    5973.53  24357.9  13005.5  1874.7
    5974.5  24627.9  13170.5  1897.7
    5975.46  24639.9  13198.5  1902.7
    5976.51  24630.9  13220.5  1907.7
    5977.47  24645.9  13239.5  1911.7
    5978.52  24633.9  13259.5  1913.7
    5979.48  24626.9  13274.5  1916.7
    5980.53  24617.9  13283.5  1918.7
    5981.49  24614.9  13306.5  1920.7
    5982.46  24626.9  13327.5  1927.7
    5983.51  24630.9  13343.5  1927.7
    5984.48  24654.9  13369.5  1931.7
    5985.52  24611.9  13349.5  1928.7
    5986.49  24079.9  13072.5  1883.7
    5987.46  21832.9  11854.5  1705.7
    5988.51  22610.9  12275.5  1759.7
    5989.48  23744.9  12866.5  1830.7
    5990.53  24179.9  13040.5  1804.7
    5991.5  24285.9  12955.5  1696.7
    5992.47  24332.9  12577.5  1583.7
    5993.52  24349.9  11279.5  1376.7
    5994.49  24393.9  8938.5  1064.7
    5995.47  24373.9  6741.5   789.7
    5996.51  24376.9  9814.5  1141.7
    5997.49  24348.9  11644.5  1354.7
    5998.54  24379.9  12251.5  1412.7
    5999.51  24326.9  12330.5  1383.7
    6000.49  24319.9  12173.5  1315.7
    6001.46  24140.9  11753.5  1219.7
    6002.51  23989.9  11285.5  1129.7
    6003.49  24225.9  11084.5  1083.7
    6004.47  24337.9  10941.5  1045.7
    6005.52  24317.9  10667.5   999.7
    6006.5  24310.9  10207.5   940.7
    6007.47  24292.9  9655.5   873.7
    6008.53  24328.9  9001.5   798.7
    6009.5  24294.9  8243.5   718.701
    6010.94  24301.7  7242.26   613.465
    6012.82  24274.8  6551.3   564.581
    6014.78  24325  6309.38   573.812
    6016.81  24307.3  6146.51   565.16
    6018.93  24351.7  6088.67   550.624
    6021.12  24357.2  6113.88   546.203
    6023.39  24422.8  6072.13   543.897
    6025.73  24467.6  5919.43   537.708
    6028.16  24564.4  5811.76   520.635
    6030.58  24611.3  5720.13   504.678
    6033.16  24675.4  5666.55   492.837
    6035.82  24766.5  5677.01   495.111
    6038.56  24832.8  5712.51   495.501
    6041.37  24939.1  5820.06   500.008
    6044.26  25024.6  6004.64   519.63
    6047.24  25139.1  6249.26   545.368
    6050.29  25253.8  6489.93   573.221
    6053.42  25386.5  6744.64   607.191
    6056.56  25532.4  7007.4   646.277
    6059.85  25616.4  7281.18   683.478
    6063.22  25687.4  7428.02   701.795
    6066.68  25847.6  7572.9   709.229
    6070.13  26002.9  7696.82   705.777
    6073.75  26191.3  7825.78   701.442
    6077.37  26374.8  7929.78   723.222
    6081.15  26551.4  8007.82   750.119
    6084.93  26748.1  8070.91   779.131
    6088.8  26942.9  8131.04   788.261
    6092.83  27144.8  8206.2   767.503
    6096.86  27359.8  8303.42   743.864
    6100.98  27581.9  8398.66   732.338
    6105.18  27801.1  8481.96   748.931
    6109.46  28027.4  8569.3   789.638
    6113.83  28273.8  8661.68   833.462
    6118.28  28537.4  8764.09   856.401
    6122.74  28782  8877.56   864.456
    6127.36  29068.7  9020.05   880.626
    6131.99  29338.6  9178.61   906.915
    6136.79  29623.5  9386.19   935.316
    6141.59  29935.6  9620.82   956.834
    6146.48  30217.7  9865.48   978.47
    6151.46  30517  10135.2   993.219
    6156.53  30802.3  10403.9  1016.08
    6161.6  31120.8  10682.7  1031.07
    6166.84  31455.3  10957.6  1038.17
    6172.1  31787  11225.5  1079.38
    6177.52  32103.8  11493.4  1134.71
    6182.95  32444.7  11756.3  1187.15
    6188.47  32793.6  12028.3  1229.71
    6194.08  33135.7  12298.4  1263.39
    6199.7  33498.9  12565.5  1299.19
    6205.5  33854.2  12844.6  1336.09
    6211.3  34256.6  13139.8  1382.12
    6217.2  34596.1  13413  1427.26
    6223.19  34955.7  13703.2  1452.52
    6229.2  35345.4  14005.5  1469.89
    6235.38  35622.2  14257.9  1475.38
    6241.56  35301.1  14270.3  1461.98
    6247.85  36370.1  14853.7  1525.7
    6254.23  36859.2  15221.1  1594.54
    6260.71  37298.5  15572.6  1675.49
    6267.2  37662.8  15921.2  1720.55
    6273.79  38091.2  16310.8  1770.74
    6280.48  38497.8  16713.4  1827.04
    6287.26  38929.4  17139.1  1876.45
    6294.06  39324.1  17556.8  1930.98
    6300.95  39732  17987.5  1995.63
    6307.95  40183.9  18446.3  2060.39
    6315.05  40617  18893.2  2116.27
    6322.16  41043.1  19351.1  2161.26
    6329.38  41499.4  19839  2209.38
    6336.69  41944.8  20330.9  2264.6
    6344.11  42396.2  20822  2333.94
    6351.55  42821.8  21320  2410.4
    6359.09  43237.5  21823.1  2485.97
    6366.65  43740.3  22372.2  2577.66
    6374.31  44166.1  22890.4  2662.47
    6382.07  44611.1  23421.6  2733.39
    6389.95  45056.2  23972.9  2807.43
    6397.84  45466.4  24497.2  2882.58
    6405.84  45942.7  25072.5  2959.85
    6413.95  46408.1  25666.9  3040.23
    6422.08  46834.6  26245.3  3126.73
    6430.32  47177.2  26799.8  3203.35
    6438.58  47656.9  27448.3  3282.08
    6446.95  48119.7  28110.8  3374.93
    6455.43  48466.7  28721.4  3474.89
    6463.93  48994.7  29462  3588.98
    6472.55  49384.8  30130.7  3690.17
    6481.28  49871  30874.4  3803.48
    6490.03  50298.4  31609.2  3918.91
    6498.9  50764.8  32377  4029.45
    6507.79  51171.4  33124.8  4137.11
    6516.8  51603  33899.7  4264.89
    6525.92  52057.8  34712.6  4390.77
    6535.07  52474.6  35519.6  4519.78
    6544.25  52875.6  36316.6  4638.9
    6553.54  53181.6  37066.7  4749.15
    6562.95  53632.8  37938.7  4883.5
    6572.4  54021.1  38754.9  5019.97
    6581.96  54391.4  39586.1  5157.56
    6591.55  54891.9  40508.3  5306.25
    6601.26  55221.5  41334.5  5444.07
    6611.09  55681.2  42286.8  5599.01
    6620.95  56082  43201.2  5750.06
    6630.85  56520.8  44146.6  5903.22
    6640.87  56851.8  45052  6056.5
    6650.92  57217.9  45990.4  6216.9
    6661.1  57638.1  46979.9  6384.41
    6671.31  57928.4  47886.5  6545.04
    6681.64  58266.8  48863.1  6710.79
    6692.01  58385.4  49673.7  6855.64
    6702.51  55886  48227.4  6689.62
    6713.04  60243.7  52773.1  7349.71
    6723.7  60135.5  53459.9  7481.92
    6734.4  60160.4  54300.7  7632.24
    6745.14  60657.5  55561.5  7856.69
    6756  57970.6  53904.4  7660.24
    6766.91  61465.9  58020.3  8291.91
    6777.94  61858.2  59270.3  8509.7
    6789.02  61832.6  60112.3  8682.6
    6800.23  61468.2  60652.4  8809.62
    6811.48  64331.8  64406.4  9406.75
    6822.77  63401.6  64413.6  9459.01
    6834.19  63454.5  65450.8  9659.38
    6845.66  63694.4  66674  9894.85
    6857.16  63874.5  67854.2  10120.5
    6868.81  64039.7  69044.5  10350.2
    6880.5  64300.9  70374.9  10601
    6892.33  64417.3  71565.3  10832.9
    6904.2  64602.8  72853.7  11091
    6916.11  64745.4  74107.2  11340.2
    6928.18  64840.1  75367.7  11605.5
    6940.28  65048.9  76736.2  11888.9
    6952.43  65194.8  78084.8  12157.4
    6964.62  65376.8  79484.4  12438
    6976.96  65533.9  80879.1  12720.8
    6989.35  65673.1  82276.8  12996.7
    7001.88  65790.4  83638.6  13285.7
    7014.47  65889.8  85002.4  13575.8
    7027.1  65914.3  86275.3  13833
    7039.77  66095  87790.1  14163.3
    7052.6  66186.7  89190.1  14460.8
    7065.48  66256.5  90542  14761.3
    7078.41  66284.5  91893  15056
    7091.39  66356.5  93319.1  15371.8
    7104.53  66375.6  94698.2  15678.7
    7111.06  66374.5  95354.5  15824.5

File: k2cr2o7_rt_004.xdi
# XDI/1.0
# Column.1: energy eV
# Column.2: i0
# Column.3: itrans
# Column.4: irefer
# Beamline.name: SSRL 2-3
# Beamline.notes: vert slits = 0.6mm
# Detector.I0: N2 15cm
# Detector.I1: N2 30cm
# Detector.I2: N2 15cm
# Element.edge: K
# Element.symbol: Cr
# Mono.d_spacing: 3.13550
# Mono.name: Si(111)
# Mono.notes: unfocused, detuned 75%, clockwise at E=5990eV
# Sample.formula: K2Cr2O7
# Sample.name: K2Cr2O7
# Sample.prep: powder on tape (6 layers)
# Sample.reference: Cr foil
# Sample.temperature: room temp
# Scan.start_time: 1997-04-17 18:36:45
# ///
#    Note: mono d_spacing is nominal!
#     exafs to K16
#     396  E XMU XMUR I0
#-------------
#   energy   i0   itrans  irefer
    5759.99  26044.9  9096.5  1158.7
    5780.01  25985.9  9468.5  1221.7
    5799.97  25872.9  9837.5  1284.7
    5820  25792.9  10223.5  1353.7
    5839.97  25678.9  10606.5  1420.7
    5860.02  25584.9  11010.5  1493.7
    5879.99  25468.9  11404.5  1565.7
    5899.97  25357.9  11814.5  1639.7
    5920.02  25238.9  12232.5  1719.7
    5939.99  25135.9  12652.5  1798.7
    5959.97  25015.9  13065.5  1874.7
    5970.49  24911.9  13250.5  1913.7
    5971.53  24879.9  13256.5  1916.7
    5972.49  24601.9  13132.5  1899.7
    5973.53  24702.9  13206.5  1909.7
    5974.5  24921.9  13346.5  1931.7
    5975.46  24968.9  13390.5  1935.7
    5976.51  24937.9  13393.5  1939.7
    5977.47  24956.9  13423.5  1943.7
    5978.52  24960.9  13446.5  1947.7
    5979.48  24966.9  13463.5  1951.7
    5980.53  24953.9  13480.5  1952.7
    5981.49  24963.9  13500.5  1956.7
    5982.46  24952.9  13511.5  1959.7
    5983.51  24971.9  13543.5  1965.7
    5984.48  24995.9  13565.5  1966.7
    5985.52  24968.9  13566.5  1965.7
    5986.49  24430.9  13283.5  1923.7
    5987.46  22224.9  12081.5  1748.7
    5988.51  22840.9  12411.5  1787.7
    5989.48  24066.9  13048.5  1868.7
    5990.53  24502.9  13228.5  1840.7
    5991.5  24632.9  13162.5  1735.7
    5992.47  24671.9  12794.5  1620.7
    5993.52  24689.9  11532.5  1418.7
    5994.49  24707.9  9239.5  1111.7
    5995.47  24716.9  6830.5   809.701
    5996.51  24689.9  9785.5  1147.7
    5997.49  24710.9  11775.5  1379.7
    5998.54  24692.9  12407.5  1442.7
    5999.51  24687.9  12532.5  1418.7
    6000.49  24650.9  12370.5  1346.7
    6001.46  24494.9  11955.5  1254.7
    6002.51  24298.9  11455.5  1159.7
    6003.49  24551.9  11259.5  1111.7
    6004.47  24652.9  11097.5  1072.7
    6005.52  24659.9  10846.5  1026.7
    6006.5  24633.9  10388.5   968.7
    6007.47  24650.9  9836.5   898.7
    6008.53  24632.9  9169.5   822.7
    6009.5  24654.9  8422.5   742.7
    6010.94  24624.7  7381.25   636.465
    6012.82  24604.8  6661.3   583.581
    6014.78  24615  6404.38   586.812
    6016.81  24618.3  6235.5   584.16
    6018.93  24650.7  6167.67   569.624
    6021.12  24660.2  6195.88   559.203
    6023.39  24744.8  6160.13   558.897
    6025.73  24780.6  6004.43   552.708
    6028.16  24828.4  5884.76   535.635
    6030.58  24880.3  5790.13   517.678
    6033.16  24970.4  5742.55   507.837
    6035.82  25045.5  5749.01   508.111
    6038.56  25118.8  5784.51   506.501
    6041.37  25212.1  5886.06   513.008
    6044.26  25303.6  6071.64   528.63
    6047.24  25432.1  6319.26   557.368
    6050.29  25523.8  6559.93   583.221
    6053.42  25667.5  6819.64   620.191
    6056.56  25797.4  7125.39   661.277
    6059.85  25917.4  7373.19   695.478
    6063.22  25997.4  7522.02   714.795
    6066.68  26127.6  7660.9   721.229
    6070.13  26278.9  7783.81   716.777
    6073.75  26518.3  7920.78   715.442
    6077.37  26680.8  8020.78   733.222
    6081.15  26852.4  8101.82   762.12
    6084.93  27092.1  8177.9   793.131
    6088.8  27301.9  8249.03   803.26
    6092.83  27469.8  8312.2   781.503
    6096.86  27675.8  8402.41   758.863
    6100.98  27880.9  8492.66   744.338
    6105.18  28086.1  8575.96   759.931
    6109.46  28316.4  8664.29   802.638
    6113.83  28576.8  8761.67   846.461
    6118.28  28852.4  8873.09   869.401
    6122.74  29076  8975.55   878.456
    6127.36  29343.7  9112.05   890.627
    6131.99  29606.6  9268.6   919.914
    6136.79  29924.5  9484.19   949.317
    6141.59  30233.6  9719.82   969.834
    6146.48  30480.7  9958.49   989.47
    6151.46  30783  10227.2  1005.22
    6156.53  31093.3  10506  1029.08
    6161.6  31390.8  10775.7  1039.07
    6166.84  31734.3  11059.6  1050.17
    6172.1  32027  11318.5  1088.38
    6177.52  32375.8  11592.4  1149.71
    6182.95  32692.7  11855.3  1202.15
    6188.47  33060.6  12135.3  1242.71
    6194.08  33389.7  12395.4  1275.39
    6199.7  33807.9  12690.5  1314.19
    6205.5  34160.2  12971.6  1348.09
    6211.3  34536.6  13258.8  1396.12
    6217.2  34881.1  13538  1440.26
    6223.19  35269.7  13838.2  1463.52
    6229.2  35649.4  14127.5  1480.89
    6235.38  35976.2  14401.9  1490.38
    6241.56  35644.1  14415.3  1477.98
    6247.85  36651.1  14975.7  1537.7
    6254.23  37190.2  15359.1  1607.54
    6260.71  37574.5  15695.6  1685.49
    6267.2  37995.8  16066.2  1739.55
    6273.79  38389.2  16444.8  1784.74
    6280.48  38821.8  16852.4  1842.04
    6287.26  39197.4  17258.1  1892.45
    6294.06  39642.1  17697.8  1948.98
    6300.95  40093  18156.5  2016.63
    6307.95  40452.9  18578.3  2075.39
    6315.05  40963  19077.2  2134.27
    6322.16  41394.1  19538.1  2180.27
    6329.38  41852.4  20022  2230.38
    6336.69  42284.8  20511.9  2284.6
    6344.11  42739.2  21017  2353.94
    6351.55  43182.8  21522  2433.4
    6359.09  43631.5  22041.1  2515.98
    6366.65  44091.3  22571.2  2608.66
    6374.31  44504.1  23097.4  2688.47
    6382.07  44934.1  23616.6  2758.39
    6389.95  45401.2  24170.9  2833.43
    6397.84  45795.4  24696.2  2911.58
    6405.84  46254.7  25265.5  2989.85
    6413.95  46720.1  25864.9  3070.23
    6422.08  47159.6  26450.3  3157.73
    6430.32  47594.2  27055.8  3239.35
    6438.58  47985.9  27658.3  3312.08
    6446.95  48476.7  28335.8  3406.93
    6455.43  48880.7  28977.4  3515.89
    6463.93  49367.7  29706  3628.98
    6472.55  49766.8  30377.7  3732.17
    6481.28  50214  31110.4  3844.48
    6490.03  50696.4  31873.2  3960.91
    6498.9  51120.8  32625  4066.45
    6507.79  51565.4  33388.8  4175.11
    6516.8  51955  34157.7  4297.89
    6525.92  52397.8  34975.6  4430.78
    6535.07  52829.6  35780.6  4558.78
    6544.25  53214.6  36574.6  4681.91
    6553.54  53585.6  37372.7  4794.14
    6562.95  53996.8  38200.7  4924.5
    6572.4  54465.1  39082.9  5065.97
    6581.96  54806.4  39903.1  5203.55
    6591.55  55251.9  40788.3  5349.26
    6601.26  55630.5  41657.5  5490.07
    6611.09  56027.2  42561.8  5638.01
    6620.95  56445  43477.2  5785.06
    6630.85  56845.8  44419.6  5943.22
    6640.87  57239.8  45374  6102.5
    6650.92  57553.9  46285.4  6262.9
    6661.1  57985.1  47293.9  6429.41
    6671.31  58339.4  48256.5  6591.04
    6681.64  58636.8  49211.1  6756.78
    6692.01  58846.4  50101.7  6907.65
    6702.51  56379  48701.4  6746.62
    6713.04  60632.7  53164.1  7392.71
    6723.7  60536.5  53869.9  7526.92
    6734.4  60540.4  54673.7  7679.25
    6745.14  61031.5  55938.5  7912.68
    6756  57972.6  53938.4  7668.24
    6766.91  61848.9  58411.3  8350.91
    6777.94  62345.2  59764.3  8590.7
    6789.02  62161.6  60478.3  8735.6
    6800.23  61845.2  61063.4  8867.62
    6811.48  64550.8  64689.4  9444.76
    6822.77  63570.6  64640.6  9493.01
    6834.19  63630.5  65656.8  9696.37
    6845.66  63805.4  66837  9911.85
    6857.16  64041.5  68066.2  10144.5
    6868.81  64276.7  69337.5  10388.2
    6880.5  64462.9  70576.9  10625
    6892.33  64693.3  71903.3  10888.9
    6904.2  64840.8  73157.7  11132
    6916.11  64955.4  74393.2  11384.2
    6928.18  65028.1  75606.7  11638.5
    6940.28  65176.9  76941.2  11898.9
    6952.43  65314.8  78244.8  12176.4
    6964.62  65395.8  79566.4  12451.1
    6976.96  65405.9  80754.1  12700.8
    6989.35  65610.1  82229.8  12988.7
    7001.88  65722.4  83624.6  13272.7
    7014.47  65785.8  84936.4  13546.8
    7027.1  65821.3  86230.3  13829
    7039.77  65997  87711.1  14130.3
    7052.6  66070.7  89097.1  14425.8
    7065.48  66125.5  90473  14733.4
    7078.41  66223.5  91875  15048
    7091.39  66231.5  93198.1  15335.8
    7104.53  66247.6  94558.2  15638.7
    7111.06  66236.5  95139.5  15784.5

File: k2cro4_15K_001.xdi
# XDI/1.0
# Column.1: energy eV
# Column.2: i0
# Column.3: itrans
# Column.4: irefer
# Beamline.name: SSRL 2-3
# Beamline.notes: vert slits = 0.6mm
# Detector.I0: N2 15cm
# Detector.I1: N2 30cm
# Detector.I2: N2 15cm
# Element.edge: K
# Element.symbol: Cr
# Mono.d_spacing: 3.13550
# Mono.name: Si(111)
# Mono.notes: unfocused, detuned 75%, clockwise at E=5990eV
# Sample.formula: K2CrO4
# Sample.name: K2CrO4
# Sample.prep: powder on tape (4 layers)
# Sample.reference: Cr foil
# Sample.temperature: 15K
# Scan.start_time: 1997-04-18 11:01:58
# ///
#    Note: mono d_spacing is nominal!
#     exafs to K16
#     396  E XMU XMUR I0
#-------------
#   energy   i0   itrans  irefer
    5759.99  173904  3398.7   435.3
    5780.01  172642  3536.7   460.3
    5799.97  171250  3677.7   483.3
    5820  169896  3820.7   508.3
    5839.97  168587  3968.7   532.3
    5860.02  167279  4123.7   558.3
    5879.99  165858  4277.7   588.3
    5899.97  164478  4438.7   615.3
    5920.02  162936  4590.7   645.3
    5939.99  161492  4749.7   675.3
    5959.97  159962  4906.7   705.3
    5970.49  159133  4983.7   719.301
    5971.53  158400  4968.7   720.3
    5972.49  156629  4925.7   713.3
    5973.53  157707  4965.7   718.3
    5974.5  159284  5026.7   727.3
    5975.46  159156  5028.7   728.3
    5976.51  159261  5040.7   730.3
    5977.47  159049  5047.7   732.3
    5978.52  159042  5051.7   732.3
    5979.48  158846  5055.7   732.3
    5980.53  159068  5072.7   736.3
    5981.49  158892  5074.7   735.3
    5982.46  159025  5084.7   737.3
    5983.51  158948  5091.7   737.3
    5984.48  159193  5105.7   740.301
    5985.52  158701  5098.7   739.3
    5986.49  155027  4981.7   721.3
    5987.46  141396  4545.7   658.3
    5988.51  146262  4706.7   677.3
    5989.48  152938  4915.7   702.3
    5990.53  155654  4983.7   688.3
    5991.5  156132  4955.7   651.3
    5992.47  156453  4851.7   615.3
    5993.52  156467  4456.7   548.3
    5994.49  156500  3330.7   401.3
    5995.47  156437  2627.7   310.3
    5996.51  156382  4050.7   475.3
    5997.49  156418  4644.7   543.3
    5998.54  156322  4804.7   555.3
    5999.51  156187  4801.7   539.3
    6000.49  155896  4709.7   509.3
    6001.46  154673  4515.7   470.3
    6002.51  153567  4359.7   437.3
    6003.49  155832  4425.7   434.3
    6004.47  156082  4473.7   430.3
    6005.52  155951  4459.7   419.3
    6006.5  155863  4354.7   403.3
    6007.47  155719  4179.7   379.3
    6008.53  155522  3822.7   339.3
    6009.5  155570  3345.7   292.3
    6010.94  155517  2862.46   244.064
    6012.82  155505  2702.51   235.181
    6014.78  155223  2748.62   250.415
    6016.81  155322  2762.78   255.765
    6018.93  155347  2616   238.233
    6021.12  155476  2569.27   231.817
    6023.39  155754  2494.6   225.518
    6025.73  155899  2444.98   222.335
    6028.16  156330  2459.42   221.27
    6030.58  156473  2423.91   213.321
    6033.16  156947  2439.45   214.49
    6035.82  157195  2448.05   213.774
    6038.56  157681  2380.7   209.176
    6041.37  158148  2332.41   203.695
    6044.26  158629  2405.17   210.331
    6047.24  159325  2579.99   229.083
    6050.29  159706  2731.85   242.952
    6053.42  160681  2843.78   258.938
    6056.56  161302  2919.76   272.041
    6059.85  161902  3011.79   286.26
    6063.22  162208  3132.88   297.597
    6066.68  162897  3241.03   309.05
    6070.13  163791  3317.22   307.621
    6073.75  164799  3319.47   302.307
    6077.37  165707  3308.78   307.111
    6081.15  166847  3299.14   314.031
    6084.93  167746  3306.55   322.069
    6088.8  169033  3358.02   331.223
    6092.83  170205  3449.54   328.494
    6096.86  171415  3529.12   319.882
    6100.98  172605  3563.76   315.387
    6105.18  173717  3579.44   322.008
    6109.46  175305  3567.18   335.746
    6113.83  176349  3581.98   350.601
    6118.28  177849  3619.83   360.573
    6122.74  179296  3631.73   359.662
    6127.36  180826  3664.69   364.868
    6131.99  182206  3752.7   377.19
    6136.79  183615  3883.77   395.629
    6141.59  185106  4030.89   409.185
    6146.48  186683  4133.07   415.858
    6151.46  188601  4234.3   421.648
    6156.53  190040  4333.59   429.554
    6161.6  191626  4418.92   430.578
    6166.84  193283  4510.31   430.718
    6172.1  194842  4617.77   447.975
    6177.52  196615  4758.27   474.349
    6182.95  198531  4902.83   501.839
    6188.47  200184  4998.44   517.447
    6194.08  201805  5095.1   529.17
    6199.7  203855  5194.82   543.012
    6205.5  205212  5278.6   558.97
    6211.3  207058  5373.42   577.044
    6217.2  209226  5475.31   589.236
    6223.19  211149  5592.25   600.544
    6229.2  213215  5714.24   604.97
    6235.38  214541  5819.28   608.512
    6241.56  212781  5820.38   603.171
    6247.85  218603  6040.54   626.946
    6254.23  220868  6178.75   653.839
    6260.71  222930  6326.02   683.848
    6267.2  224767  6480.33   706.974
    6273.79  226931  6643.7   728.217
    6280.48  229062  6803.13   749.576
    6287.26  230989  6946.61   766.053
    6294.06  233129  7122.15   784.645
    6300.95  235122  7302.74   813.357
    6307.95  237128  7494.39   839.184
    6315.05  239416  7687.09   863.128
    6322.16  241188  7841.84   878.188
    6329.38  243454  8032.65   894.366
    6336.69  245551  8236.51   919.661
    6344.11  247636  8419.43   945.073
    6351.55  249528  8601.4   972.6
    6359.09  251316  8777.43  1004.24
    6366.65  253692  8975.51  1036.01
    6374.31  255577  9160.64  1063.88
    6382.07  257463  9360.83  1088.88
    6389.95  259109  9567.07  1116.99
    6397.84  261207  9776.37  1147.22
    6405.84  263055  9977.72  1174.57
    6413.95  264895  10190.1  1206.03
    6422.08  267109  10424.6  1241.61
    6430.32  269315  10668.1  1274.3
    6438.58  271248  10925.7  1304.12
    6446.95  272972  11172.3  1342.05
    6455.43  274791  11417  1382.09
    6463.93  276486  11685.7  1424.26
    6472.55  278375  11959.5  1469.54
    6481.28  280024  12222.3  1515.93
    6490.03  282215  12520.2  1559.45
    6498.9  283744  12787.2  1595.08
    6507.79  285241  13067.2  1636.83
    6516.8  286753  13346.3  1680.69
    6525.92  288632  13655.4  1733.67
    6535.07  289914  13934.5  1780.77
    6544.25  291114  14201.8  1822.98
    6553.54  292251  14468  1864.32
    6562.95  293558  14758.4  1910.77
    6572.4  295073  15066.8  1959.33
    6581.96  296333  15362.2  2010.01
    6591.55  297755  15681.7  2057.81
    6601.26  298657  15978.2  2105.73
    6611.09  299705  16286.8  2153.76
    6620.95  301138  16618.5  2210.91
    6630.85  302103  16932.2  2260.18
    6640.87  302634  17236  2312.56
    6650.92  304292  17613.8  2376.06
    6661.1  304946  17927.7  2436.67
    6671.31  305659  18254.6  2488.41
    6681.64  305619  18545.6  2546.26
    6692.01  305257  18829.6  2599.23
    6702.51  290402  18225.7  2529.31
    6713.04  314620  20027.9  2789.51
    6723.7  311988  20174.1  2820.83
    6734.4  310104  20379.3  2864.26
    6745.14  311779  20845.6  2947.82
    6756  307582  20921  2970.48
    6766.91  315710  21780.4  3108.27
    6777.94  316963  22216.9  3192.17
    6789.02  315111  22439.4  3239.19
    6800.23  310715  22487  3262.32
    6811.48  328342  24138.6  3511.58
    6822.77  320957  23989.3  3508.95
    6834.19  319568  24288.1  3571.43
    6845.66  319145  24656.9  3642.04
    6857.16  319149  25052.7  3718.76
    6868.81  318798  25439.6  3798.59
    6880.5  319396  25916.6  3893.54
    6892.33  319029  26316.6  3975.61
    6904.2  319030  26760.7  4056.8
    6916.11  318925  27194.8  4134.11
    6928.18  317797  27550  4211.53
    6940.28  318341  28059.3  4323.06
    6952.43  317858  28485.5  4409.72
    6964.62  318175  28971.9  4507.49
    6976.96  318252  29460.3  4610.37
    6989.35  318245  29953.7  4706.38
    7001.88  318161  30407.2  4817.5
    7014.47  317973  30879.8  4918.74
    7027.1  317272  31293.4  5009.09
    7039.77  316962  31771.1  5114.57
    7052.6  316782  32262.8  5217.16
    7065.48  316372  32724.6  5319.86
    7078.41  316231  33232.4  5426.68
    7091.39  315874  33723.3  5524.62
    7104.53  315399  34218.3  5644.67
    7111.06  315268  34466.5  5704.5