Folder: XASDataLibrary/data/Cr (part 4)

File: cr2o3_ssrl4_1_rt_003.xdi
# XDI/1.0
# Column.1: energy eV
# Column.2: i0
# Column.3: itrans
# Column.4: irefer
# Beamline.name: SSRL 4-1
# Detector.I0: N2 15cm
# Detector.I1: N2 30cm
# Detector.I2: N2 15cm
# Element.edge: K
# Element.symbol: Cr
# Mono.d_spacing: 3.13550
# Mono.name: Si(111)
# Mono.notes: unfocused, detuned 30%,counter clockwise at E=6200eV
# Sample.formula: Cr2O3
# Sample.name: Cr2O3 chromium sesquioxide
# Sample.prep: powder, mixed 1:100 with B(OH)3 by wt
# Sample.reference: none
# Sample.temperature: room temperature
# Scan.start_time: 1997-01-20 20:45:03
# ///
#    Note: mono d_spacing is nominal!
#     exafs to K15: not great data!!  fluorescence signal included
#     381  E XMU XMUF I0
#-------------
#   energy   i0   itrans  irefer
    5789  520291  40346.7  39483.9
    5810.25  523877  42428.7  41501.9
    5831.5  528111  44692.7  43697.1
    5852.75  531151  46948.7  45879.9
    5874  534814  49403.7  48249.6
    5895.25  538135  51918.7  50678.4
    5916.5  541541  54610.7  53273.6
    5937.75  544470  57377.7  55932.8
    5959  547504  60233.7  58678.4
    5960.52  548041  60485.7  58921
    5962.03  547844  60639.7  59069.4
    5963.54  548083  60848.7  59267.9
    5965.06  548302  61041.7  59451.8
    5966.58  549122  61321.7  59718.5
    5968.09  549028  61478.7  59868.4
    5969.6  549225  61694.7  60075.6
    5971.12  549518  61847.7  60220.3
    5972.64  547969  61559.7  59933.7
    5974.15  544102  61869.7  60228.8
    5975.67  544668  62268.7  60610.3
    5977.18  544820  62022.7  60365.6
    5978.7  548863  62729.7  61048.8
    5980.21  550548  63092.7  61393.8
    5981.73  550557  63263.7  61554
    5983.24  550177  63300.7  61578.6
    5984.76  535512  60393.7  58732.4
    5986.27  502861  59949.7  58260.5
    5987.79  541313  63085.7  61305
    5989.3  547733  63413.7  61536.5
    5990.82  549446  63325.7  61301.8
    5992.33  550315  63218.7  61118.6
    5993.85  549243  62225.7  59946.3
    5995.36  543384  62146.7  59829.1
    5996.88  541415  61686.7  59272.4
    5998.39  547456  60448.7  57607.1
    5999.91  550872  57055.7  53352.1
    6001.42  551541  54054.7  49602.2
    6002.94  551949  52412.7  47604.3
    6004.45  552047  49822.7  44545.9
    6005.97  551744  46834.7  41104.1
    6007.49  552196  45276.7  39158.4
    6009  552941  45504.7  39340
    6009.04  552711  45478.7  39315.9
    6009.15  552955  45460.6  39297.1
    6009.35  553078  45413.4  39246.9
    6009.62  553403  45317.2  39136.7
    6009.97  554236  45211.9  39001.1
    6010.39  554229  44944.5  38687.3
    6010.89  555582  44852.1  38523.8
    6011.47  556505  44912.6  38525
    6012.13  557409  45341  38923.8
    6012.86  558058  46166.4  39782.6
    6013.67  559767  47244.7  40946.7
    6014.56  560384  48124  41936
    6015.53  562192  48851.1  42714.7
    6016.57  563740  49518.3  43409.9
    6017.69  565204  50264.3  44202
    6018.88  566824  50950.3  44930.5
    6020.16  568442  51273.2  45247.2
    6021.51  570656  51226  45115.8
    6022.94  572683  51095.8  44867.9
    6024.44  575137  51319.5  45004.3
    6026.03  576805  51903.2  45557
    6027.69  579148  53106.8  46822.4
    6029.43  581735  54494.3  48305.6
    6031.24  584417  55775.8  49676.1
    6033.14  587268  56858.1  50809.6
    6035.1  589716  57839.4  51828.1
    6037.15  593081  58788.7  52784.8
    6039.27  596164  59449.9  53407.6
    6041.47  599031  59857.1  53735.4
    6043.75  601975  60124.1  53884.5
    6046.11  605750  60712.1  54374.1
    6048.54  609394  61182  54741.3
    6051.05  612496  61178.9  54577.8
    6053.64  616674  61168.7  54352.8
    6056.3  619490  61213.4  54231.3
    6059.04  622452  61215.1  54051.1
    6061.86  625307  61277.7  53928.3
    6064.76  629469  61656.2  54144.1
    6067.73  633898  62267.6  54621
    6070.78  638069  62986  55211.3
    6073.91  642798  64018.4  56148.8
    6077.11  647387  65131.7  57178.6
    6080.4  651656  66211.9  58177.3
    6083.76  656749  67638  59546.4
    6087.19  661534  69012.1  60859.5
    6090.7  666105  70389.1  62177.5
    6094.3  671401  71760  63470.5
    6097.97  677230  72802.9  64351.1
    6101.71  681917  73650.7  65029.9
    6105.53  687772  74895.4  66118.6
    6109.43  693603  76282.1  67376.6
    6113.41  698702  77552.7  68510.4
    6117.46  704834  78735.2  69512.5
    6121.6  710530  79955.8  70552.3
    6125.81  716914  81384.1  71806.3
    6130.09  722590  82712.5  72959.5
    6134.45  728652  83899.8  73926
    6138.89  735696  85140  74901.6
    6143.41  741757  86284.2  75801.7
    6148.01  748637  87759.2  77037
    6152.68  755246  89490.2  78571.6
    6157.43  762015  91051.2  79890.4
    6162.26  768764  92299.1  80832
    6167.16  775205  93800.9  82069.1
    6172.14  782828  96007.7  84084.4
    6177.2  789752  98232.3  86143
    6182.33  797262  100084  87722.5
    6187.55  804982  102057  89417.7
    6192.84  813073  104222  91318.3
    6198.2  820798  106787  93675.9
    6203.65  828414  109522  96222.8
    6209.17  835748  111806  98237.2
    6214.77  844773  114072  100146
    6220.45  852370  115864  101548
    6226.2  860557  117634  102882
    6232.03  869119  119793  104636
    6237.94  868147  121560  106179
    6243.92  866974  122509  106985
    6249.98  893730  127775  111583
    6256.12  903199  130626  114036
    6262.34  912972  133316  116258
    6268.63  922021  136207  118721
    6275.01  931068  139382  121510
    6281.45  941156  142825  124528
    6287.98  949785  145822  127079
    6294.58  960241  149046  129773
    6301.26  969058  152061  132286
    6308.02  978113  155091  134771
    6314.85  988685  158875  138033
    6321.77  997796  162630  141307
    6328.76  1.00887e+06  166931  145098
    6335.82  1.01834e+06  170919  148572
    6342.97  1.02865e+06  174856  151925
    6350.19  1.03934e+06  178730  155120
    6357.48  1.04956e+06  182638  158356
    6364.86  1.06031e+06  186817  161838
    6372.31  1.07141e+06  191283  165594
    6379.84  1.08163e+06  195920  169564
    6387.45  1.09308e+06  200669  173559
    6395.13  1.10376e+06  205142  177215
    6402.89  1.11568e+06  210191  181452
    6410.73  1.12622e+06  215168  185656
    6418.65  1.13704e+06  220182  189851
    6426.64  1.14938e+06  225792  194591
    6434.71  1.15949e+06  230941  198911
    6442.86  1.1719e+06  236607  203638
    6451.08  1.18323e+06  242465  208614
    6459.38  1.19527e+06  248832  214102
    6467.76  1.2078e+06  255252  219559
    6476.22  1.21893e+06  261270  224571
    6484.75  1.23121e+06  267574  229801
    6493.36  1.24298e+06  273859  234975
    6502.05  1.25523e+06  280381  240329
    6510.82  1.26716e+06  287180  245960
    6519.66  1.28067e+06  294233  251704
    6528.58  1.29256e+06  301218  257460
    6537.58  1.30562e+06  308913  263880
    6546.65  1.31708e+06  316608  270320
    6555.8  1.33043e+06  324843  277244
    6565.03  1.34362e+06  333398  284438
    6574.33  1.35572e+06  341809  291455
    6583.72  1.36909e+06  350390  298474
    6593.18  1.38173e+06  358825  305272
    6602.72  1.39452e+06  367488  312302
    6612.33  1.40723e+06  376610  319806
    6622.02  1.42104e+06  386420  327952
    6631.79  1.4339e+06  396077  335907
    6641.64  1.44708e+06  406215  344264
    6651.56  1.45984e+06  416425  352664
    6661.56  1.47314e+06  427144  361503
    6671.64  1.48594e+06  437625  370073
    6681.8  1.49827e+06  448282  378741
    6692.03  1.51042e+06  458905  387290
    6702.34  1.52148e+06  469289  395664
    6712.73  1.4955e+06  464428  391149
    6723.19  1.54406e+06  489106  411349
    6733.73  1.57013e+06  508325  427345
    6744.35  1.58004e+06  520323  437050
    6755.04  1.60076e+06  536813  450551
    6765.82  1.57703e+06  537389  450767
    6776.67  1.62128e+06  561897  470894
    6787.6  1.56519e+06  561046  469904
    6798.6  1.66575e+06  597913  500103
    6809.68  1.67294e+06  609997  509794
    6820.84  1.68419e+06  624705  521645
    6832.08  1.69495e+06  639327  533395
    6843.39  1.70867e+06  655581  546449
    6854.78  1.72222e+06  672155  559759
    6866.25  1.73508e+06  688837  573038

File: cr2s3_15K_001.xdi
# XDI/1.0
# Column.1: energy eV
# Column.2: i0
# Column.3: itrans
# Column.4: irefer
# Beamline.name: SSRL 2-3
# Beamline.notes: vert slits = 0.6mm
# Detector.I0: N2 15cm
# Detector.I1: N2 30cm
# Detector.I2: N2 15cm
# Element.edge: K
# Element.symbol: Cr
# Mono.d_spacing: 3.13550
# Mono.name: Si(111)
# Mono.notes: unfocused, detuned 75%, clockwise at E=5990eV
# Sample.formula: Cr2S3
# Sample.name: Cr2S3
# Sample.prep: powder on tape (4 layers)
# Sample.reference: Cr foil
# Sample.temperature: 15K
# Scan.start_time: 1997-04-18 16:16:50
# ///
#    Note: mono d_spacing is nominal!
#     exafs to K16
#     396  E XMU XMUR I0
#-------------
#   energy   i0   itrans  irefer
    5759.99  234427  9345.7  1195.3
    5780.01  234036  9719.7  1261.3
    5799.97  233411  10094.7  1326.3
    5820  233029  10497.7  1396.3
    5839.97  232235  10889.7  1466.3
    5860.02  231753  11309.7  1539.3
    5879.99  231069  11725.7  1616.3
    5899.97  230725  12171.7  1697.3
    5920.02  230266  12617.7  1777.3
    5939.99  229278  13037.7  1857.3
    5959.97  228698  13471.7  1938.3
    5970.49  227952  13675.7  1976.3
    5971.53  226985  13645.7  1976.3
    5972.49  224305  13500.7  1956.3
    5973.53  226600  13659.7  1979.3
    5974.5  228245  13784.7  1998.3
    5975.46  228416  13809.7  2002.3
    5976.51  228472  13835.7  2007.3
    5977.47  228438  13855.7  2010.3
    5978.52  228393  13880.7  2015.3
    5979.48  228366  13900.7  2015.3
    5980.53  228172  13905.7  2018.3
    5981.49  228301  13929.7  2023.3
    5982.46  228276  13949.7  2024.3
    5983.51  228585  13979.7  2028.3
    5984.48  228508  13990.7  2030.3
    5985.52  227745  13960.7  2024.3
    5986.49  218937  13428.7  1944.3
    5987.46  196760  12076.7  1747.3
    5988.51  213964  13125.7  1889.3
    5989.48  222158  13606.7  1937.3
    5990.53  224667  13639.7  1859.3
    5991.5  225240  13401.7  1737.3
    5992.47  225736  13155.7  1647.3
    5993.52  225746  13026.7  1585.3
    5994.49  225976  13052.7  1554.3
    5995.47  225864  12976.7  1523.3
    5996.51  225934  12437.7  1455.3
    5997.49  225790  11052.7  1292.3
    5998.54  225697  9372.7  1083.3
    5999.51  225688  8390.7   937.3
    6000.49  225163  7874.7   848.3
    6001.46  222876  7866.7   814.3
    6002.51  222538  8280.7   829.3
    6003.49  225337  8767.7   858.3
    6004.47  225486  8904.7   853.3
    6005.52  225496  8689.7   817.3
    6006.5  225212  8381.7   776.3
    6007.47  226173  8185.7   745.3
    6008.53  224830  7948.7   710.3
    6009.5  224764  7813.7   685.3
    6010.94  224799  7632.46   656.064
    6012.82  224482  7411.51   652.181
    6014.78  224985  7477.62   687.415
    6016.81  225083  7617.78   709.765
    6018.93  225322  7616   696.233
    6021.12  225421  7619.27   683.817
    6023.39  226274  7694.6   696.518
    6025.73  226861  7851.98   715.335
    6028.16  227191  8118.41   727.269
    6030.58  227892  8345.91   740.321
    6033.16  228365  8630.45   760.49
    6035.82  229081  9016.05   792.774
    6038.56  230093  9237.7   808.176
    6041.37  230717  9260.41   804.695
    6044.26  231776  9218.17   807.331
    6047.24  232902  9219.99   815.083
    6050.29  233553  9112.85   814.952
    6053.42  234869  9037.78   825.938
    6056.56  236414  9028.76   842.041
    6059.85  237330  8944.79   846.26
    6063.22  238225  8896.88   847.597
    6066.68  240185  8976.02   844.049
    6070.13  241503  9108.22   838.621
    6073.75  242549  9161.48   829.307
    6077.37  244235  9381.77   864.111
    6081.15  245811  9850.14   934.031
    6084.93  247737  10305.6  1003.07
    6088.8  249503  10670  1040.22
    6092.83  251216  10943.5  1028.49
    6096.86  252674  11075.1   993.882
    6100.98  254415  11151.8   976.388
    6105.18  256559  11245.4  1002.01
    6109.46  258103  11273.2  1047.75
    6113.83  259911  11165  1082.6
    6118.28  262636  11142.8  1095.57
    6122.74  265406  11241.7  1100.66
    6127.36  268046  11510.7  1127.87
    6131.99  270726  11879.7  1182.19
    6136.79  273718  12222.8  1224.63
    6141.59  276878  12548.9  1254.19
    6146.48  280082  12929.1  1284.86
    6151.46  282995  13245.3  1303.65
    6156.53  286775  13574.6  1331.55
    6161.6  289125  13818.9  1334.58
    6166.84  292510  14123.3  1342.72
    6172.1  295798  14437.8  1393.97
    6177.52  299305  14955.3  1483.35
    6182.95  301754  15329.8  1549.84
    6188.47  304482  15455.4  1579.45
    6194.08  307088  15546.1  1595.17
    6199.7  312945  15872.8  1640.01
    6205.5  315522  16119.6  1676.97
    6211.3  315857  16300.4  1716.04
    6217.2  319489  16676.3  1769.24
    6223.19  322775  17085.2  1802.54
    6229.2  326013  17555.2  1833.97
    6235.38  326922  17894.3  1840.51
    6241.56  320020  17771.4  1810.17
    6247.85  332195  18667.5  1906.95
    6254.23  333413  19063.7  1992.84
    6260.71  338132  19663  2108.85
    6267.2  341799  20119.3  2177.97
    6273.79  344433  20425.7  2219.22
    6280.48  347929  20682.1  2259.58
    6287.26  350204  20883.6  2288.05
    6294.06  355126  21440.1  2355.65
    6300.95  359598  22002.8  2442.36
    6307.95  369249  22826.4  2548.18
    6315.05  376149  23553.1  2635.13
    6322.16  381017  24220.8  2697.19
    6329.38  386786  24939.6  2771.36
    6336.69  393264  25735.5  2864.66
    6344.11  399705  26496.4  2965.07
    6351.55  406109  27172.4  3068.6
    6359.09  410708  27790.4  3168.24
    6366.65  415147  28542.5  3289.01
    6374.31  419653  29325.7  3411.88
    6382.07  423931  30034.8  3503.88
    6389.95  428648  30714.1  3600.99
    6397.84  433373  31352.4  3691.22
    6405.84  437644  31989.7  3778.57
    6413.95  442132  32646.1  3874.03
    6422.08  447287  33399.6  3985.61
    6430.32  452162  34176.1  4094.3
    6438.58  456712  35087.7  4202.12
    6446.95  461507  35983.3  4327.05
    6455.43  466404  36895  4471.1
    6463.93  471101  37848.7  4619.26
    6472.55  475161  38706.5  4748.54
    6481.28  480164  39683.3  4893.93
    6490.03  485238  40654.3  5047.45
    6498.9  490251  41594.2  5184.08
    6507.79  494319  42409.2  5307.83
    6516.8  498379  43262.3  5453.69
    6525.92  500025  43983.4  5581.68
    6535.07  501198  44656.5  5695.77
    6544.25  504147  45540.8  5832.98
    6553.54  507946  46492  5975.32
    6562.95  511898  47537.3  6136.76
    6572.4  515276  48562.8  6301.33
    6581.96  520393  49796.2  6500.02
    6591.55  525233  50926.7  6689.81
    6601.26  528932  51928.2  6861.73
    6611.09  533421  53106.9  7050.76
    6620.95  537586  54253.5  7241.91
    6630.85  541319  55400.2  7423.18
    6640.87  544785  56488  7613.56
    6650.92  549328  57714.8  7827.06
    6661.1  553686  58972.7  8040.68
    6671.31  558087  60220.6  8248.41
    6681.64  561932  61419.6  8456.26
    6692.01  564474  62491.6  8648.23
    6702.51  543031  60974.7  8473.31
    6713.04  580246  65996.8  9213.51
    6723.7  582180  67135  9410.83
    6734.4  583520  68261.3  9610.26
    6745.14  588865  69892.7  9896.82
    6756  578462  69668  9921.48
    6766.91  598315  73036.4  10450.3
    6777.94  604744  74874.9  10767.2
    6789.02  609145  76450.5  11064.2
    6800.23  607351  77260  11244.3
    6811.48  630169  81270.6  11893.6
    6822.77  619560  81024.3  11926.9
    6834.19  619465  82109.1  12143.4
    6845.66  622541  83695.8  12441
    6857.16  625802  85322.8  12743.8
    6868.81  629415  87058.7  13063.6
    6880.5  632250  88701.6  13383.5
    6892.33  636505  90560.6  13729.6
    6904.2  639063  92220.7  14065.8
    6916.11  642152  93980.9  14406.1
    6928.18  643584  95526  14726.5
    6940.28  645707  97198.2  15072.1
    6952.43  647245  98777.6  15398.7
    6964.62  651655  100829  15795.5
    6976.96  654230  102658  16159.4
    6989.35  656649  104454  16524.4
    7001.88  660703  106548  16936.5
    7014.47  659824  107843  17235.7
    7027.1  661201  109548  17594.1
    7039.77  671300  112679  18192.6
    7052.6  679775  115653  18773.2
    7065.48  683629  117896  19229.9
    7078.41  685975  119943  19651.7
    7091.39  688490  122029  20107.6
    7104.53  689356  123864  20514.7
    7111.06  689525  124740  20712.5

File: cr2s3_15K_002.xdi
# XDI/1.0
# Column.1: energy eV
# Column.2: i0
# Column.3: itrans
# Column.4: irefer
# Beamline.name: SSRL 2-3
# Beamline.notes: vert slits = 0.6mm
# Detector.I0: N2 15cm
# Detector.I1: N2 30cm
# Detector.I2: N2 15cm
# Element.edge: K
# Element.symbol: Cr
# Mono.d_spacing: 3.13550
# Mono.name: Si(111)
# Mono.notes: unfocused, detuned 75%, clockwise at E=5990eV
# Sample.formula: Cr2S3
# Sample.name: Cr2S3
# Sample.prep: powder on tape (4 layers)
# Sample.reference: Cr foil
# Sample.temperature: 15K
# Scan.start_time: 1997-04-18 16:16:50
# ///
#    Note: mono d_spacing is nominal!
#     exafs to K16
#     396  E XMU XMUR I0
#-------------
#   energy   i0   itrans  irefer
    5759.99  228550  9104.7  1166.3
    5780.01  228686  9495.7  1231.3
    5799.97  228189  9863.7  1295.3
    5820  227758  10254.7  1361.3
    5839.97  227146  10649.7  1432.3
    5860.02  226377  11037.7  1504.3
    5879.99  225599  11439.7  1576.3
    5899.97  225187  11862.7  1652.3
    5920.02  224301  12286.7  1733.3
    5939.99  223219  12685.7  1809.3
    5959.97  222078  13078.7  1884.3
    5970.49  220101  13203.7  1909.3
    5971.53  216604  13013.7  1885.3
    5972.49  214422  12901.7  1867.3
    5973.53  217199  13086.7  1895.3
    5974.5  218842  13207.7  1914.3
    5975.46  219312  13253.7  1920.3
    5976.51  219241  13270.7  1925.3
    5977.47  219514  13309.7  1930.3
    5978.52  219480  13325.7  1934.3
    5979.48  219689  13362.7  1939.3
    5980.53  219755  13383.7  1940.3
    5981.49  219808  13404.7  1944.3
    5982.46  219865  13425.7  1947.3
    5983.51  219942  13447.7  1952.3
    5984.48  219924  13463.7  1954.3
    5985.52  218996  13415.7  1945.3
    5986.49  210280  12892.7  1867.3
    5987.46  189836  11641.7  1685.3
    5988.51  206303  12655.7  1823.3
    5989.48  214154  13113.7  1869.3
    5990.53  216620  13143.7  1795.3
    5991.5  217058  12910.7  1673.3
    5992.47  217591  12675.7  1584.3
    5993.52  217494  12550.7  1523.3
    5994.49  217620  12569.7  1492.3
    5995.47  217501  12485.7  1466.3
    5996.51  217422  11945.7  1397.3
    5997.49  217556  10617.7  1241.3
    5998.54  217490  9009.7  1038.3
    5999.51  217454  8065.7   899.3
    6000.49  216825  7579.7   813.3
    6001.46  214588  7582.7   784.3
    6002.51  214748  8002.7   801.3
    6003.49  216986  8454.7   826.3
    6004.47  217227  8573.7   819.3
    6005.52  216910  8350.7   783.3
    6006.5  216874  8066.7   744.3
    6007.47  216842  7841.7   711.3
    6008.53  216799  7656.7   681.3
    6009.5  217172  7547.7   659.3
    6010.94  217216  7371.46   631.064
    6012.82  216983  7162.51   630.181
    6014.78  216845  7210.62   664.415
    6016.81  216811  7333.78   681.765
    6018.93  217012  7333   668.233
    6021.12  217977  7365.27   662.817
    6023.39  216043  7348.6   663.518
    6025.73  216735  7501.98   684.335
    6028.16  217348  7765.42   696.27
    6030.58  218786  8010.9   710.321
    6033.16  219901  8305.45   731.49
    6035.82  221790  8729.05   765.774
    6038.56  223087  8957.7   783.176
    6041.37  224676  9015.41   780.695
    6044.26  226253  8992.17   785.331
    6047.24  227682  9012.99   793.083
    6050.29  229140  8941.85   795.952
    6053.42  230650  8877.78   806.938
    6056.56  231737  8847.76   822.042
    6059.85  232908  8771.79   827.26
    6063.22  233754  8729.88   828.597
    6066.68  234980  8779.02   823.049
    6070.13  236758  8932.22   820.621
    6073.75  238574  9009.48   812.307
    6077.37  240234  9225.78   845.111
    6081.15  242144  9703.14   917.031
    6084.93  243873  10142.6   986.068
    6088.8  245742  10509  1021.22
    6092.83  247613  10781.5  1009.49
    6096.86  249581  10939.1   980.882
    6100.98  251551  11030.8   962.387
    6105.18  254029  11129.4   988.008
    6109.46  256128  11178.2  1039.75
    6113.83  258383  11097  1071.6
    6118.28  260782  11059.8  1083.57
    6122.74  263182  11139.7  1087.66
    6127.36  265905  11415.7  1115.87
    6131.99  268452  11782.7  1166.19
    6136.79  270877  12095.8  1208.63
    6141.59  273776  12409.9  1236.19
    6146.48  276429  12757.1  1266.86
    6151.46  279390  13075.3  1283.65
    6156.53  281915  13341.6  1304.56
    6161.6  284934  13614.9  1314.58
    6166.84  288008  13905.3  1319.72
    6172.1  291397  14213.8  1366.97
    6177.52  294540  14715.3  1458.35
    6182.95  297374  15101.8  1527.84
    6188.47  300664  15261.4  1557.45
    6194.08  303921  15381.1  1580.17
    6199.7  307288  15582.8  1609.01
    6205.5  310942  15885.6  1652.97
    6211.3  314350  16217.4  1709.04
    6217.2  317957  16590.3  1763.24
    6223.19  321429  17007.2  1794.54
    6229.2  325012  17490.2  1826.97
    6235.38  327150  17901.3  1846.51
    6241.56  324092  17990.4  1837.17
    6247.85  335912  18885.5  1932.95
    6254.23  340165  19440.7  2032.84
    6260.71  344188  20018  2146.85
    6267.2  348143  20496.3  2213.97
    6273.79  351741  20852.7  2266.22
    6280.48  356157  21170.1  2314.58
    6287.26  360309  21489.6  2356.05
    6294.06  364255  21983.2  2422.65
    6300.95  368994  22567.7  2509.36
    6307.95  373231  23062.4  2578.19
    6315.05  377471  23634.1  2647.13
    6322.16  382200  24284.8  2708.19
    6329.38  386530  24919.7  2773.37
    6336.69  390818  25564.5  2847.66
    6344.11  395233  26194.4  2934.07
    6351.55  399426  26718.4  3019.6
    6359.09  403317  27280.4  3107.25
    6366.65  408627  28087.5  3237.01
    6374.31  412954  28847.7  3351.88
    6382.07  417454  29564.8  3444.88
    6389.95  421890  30215.1  3533.99
    6397.84  426509  30854.4  3627.22
    6405.84  431315  31522.7  3717.57
    6413.95  435633  32151.1  3809.03
    6422.08  440229  32855.6  3913.61
    6430.32  444689  33604.1  4020.3
    6438.58  449212  34486.7  4126.12
    6446.95  453848  35366.3  4247.05
    6455.43  458769  36276  4392.09
    6463.93  463296  37212.7  4540.26
    6472.55  467857  38105.5  4677.54
    6481.28  472544  39047.3  4819.94
    6490.03  477380  39992.3  4966.45
    6498.9  481938  40892.2  5096.08
    6507.79  486582  41758.2  5228.83
    6516.8  491257  42646.3  5378.69
    6525.92  495805  43614.4  5539.67
    6535.07  500466  44596.5  5694.77
    6544.25  504409  45570.8  5842.99
    6553.54  508123  46520.1  5982.32
    6562.95  513109  47637.4  6150.77
    6572.4  517921  48827.8  6340.33
    6581.96  522499  50002.2  6526.01
    6591.55  526891  51090.7  6713.82
    6601.26  531094  52139.3  6886.73
    6611.09  535637  53326.8  7073.76
    6620.95  539845  54486.5  7263.91
    6630.85  544554  55724.2  7467.18
    6640.87  548917  56923  7672.56
    6650.92  552977  58097.8  7876.06
    6661.1  557593  59377.7  8092.67
    6671.31  561733  60607.6  8305.41
    6681.64  565822  61840.6  8506.25
    6692.01  568202  62901.7  8683.23
    6702.51  545944  61277.7  8504.31
    6713.04  584661  66504.8  9268.51
    6723.7  585928  67558.1  9462.83
    6734.4  586962  68659.3  9663.26
    6745.14  592156  70280.7  9953.82
    6756  583805  70302  10010.5
    6766.91  602138  73495.4  10524.3
    6777.94  607643  75222.9  10826.2
    6789.02  609257  76466.4  11060.2
    6800.23  606519  77142  11220.3
    6811.48  627889  80964.7  11843.6
    6822.77  624919  81706.4  12011.9
    6834.19  627371  83167.1  12279.4
    6845.66  630843  84796.9  12594
    6857.16  634112  86468.8  12903.8
    6868.81  637091  88124.6  13224.6
    6880.5  641170  89947.6  13579.5
    6892.33  644292  91669.7  13913.6
    6904.2  647400  93426.7  14252.8
    6916.11  650220  95164.8  14591.1
    6928.18  651638  96740  14917.5
    6940.28  654030  98454.2  15265.1
    6952.43  656350  100164  15620.7
    6964.62  659886  102120  16004.5
    6976.96  662163  103888  16366.4
    6989.35  665056  105800  16761.4
    7001.88  667644  107673  17148.5
    7014.47  670408  109596  17537.7
    7027.1  672761  111457  17912.1
    7039.77  675279  113395  18316.6
    7052.6  677042  115228  18707.2
    7065.48  678732  117101  19114.9
    7078.41  681579  119215  19562.7
    7091.39  683521  121191  19986.6
    7104.53  684591  123043  20397.7
    7111.06  685057  123952  20605.5