Folder: XASDataLibrary/data/Cr

Note: README
The XAS Data Library is designed to hold X-ray Absorption Spectra (EXAFS
and XANES) using an SQLite database, with array data encoded using JSON.
The principle goal for the library is as a proposed standard for storing
and exchanging XAS data. The implementation here is intended for initial
reference and comments. 

The idea is provide a format and set of tools for managing Libraries of
XAFS Data, and to be able to share these libraries between different
researchers and different analysis programs.  As the the base format of the
library will be created with SQLite, the SQL syntax and any third party
software that can use SQL and SQLite will be able to explore the data in
the format.  In addition, reference implementations of programmatically
interecting with the library will be provided.  

Ideally, a stand-alone GUI Data Browser and an on-line Library will be
built upon such a format.

See http://xafs.org/XasDataLibrary for additional information.


--Matt Newville  18-Feb-2011

File: cr2o3_15K_001.xdi
# XDI/1.0
# Column.1: energy eV
# Column.2: i0
# Column.3: itrans
# Column.4: irefer
# Beamline.name: SSRL 2-3
# Beamline.notes: vert slits = 0.6mm
# Detector.I0: N2 15cm
# Detector.I1: N2 30cm
# Detector.I2: N2 15cm
# Element.edge: K
# Element.symbol: Cr
# Mono.d_spacing: 3.13550
# Mono.name: Si(111)
# Mono.notes: unfocused, detuned 75%, clockwise at E=5990eV
# Sample.formula: Cr2O3
# Sample.name: Cr2O3
# Sample.prep: powder on tape (4 layers)
# Sample.reference: Cr foil
# Sample.temperature: 15K
# Scan.start_time: 1997-04-18 10:20:18
# ///
#    Note: mono d_spacing is nominal!
#     exafs to K16
#     396  E XMU XMUR I0
#-------------
#   energy   i0   itrans  irefer
    5759.99  213083  17480.7  2218.3
    5780.01  211320  17926.7  2301.3
    5799.97  209519  18379.7  2390.3
    5820  207936  18860.7  2482.3
    5839.97  206404  19345.7  2577.3
    5860.02  204753  19818.7  2672.3
    5879.99  203127  20305.7  2772.3
    5899.97  201047  20746.7  2865.3
    5920.02  199385  21224.7  2969.3
    5939.99  197608  21688.7  3067.3
    5959.97  196098  22174.7  3169.3
    5970.49  194600  22337.7  3212.3
    5971.53  193792  22291.7  3204.3
    5972.49  191264  22030.7  3169.3
    5973.53  192753  22190.7  3194.3
    5974.5  194177  22415.7  3225.3
    5975.46  194164  22449.7  3232.3
    5976.51  193855  22437.7  3233.3
    5977.47  193736  22450.7  3234.3
    5978.52  193421  22455.7  3237.3
    5979.48  193265  22458.7  3238.3
    5980.53  193151  22481.7  3238.3
    5981.49  193198  22510.7  3244.3
    5982.46  192799  22495.7  3243.3
    5983.51  192919  22544.7  3248.3
    5984.48  192639  22541.7  3248.3
    5985.52  192596  22573.7  3252.3
    5986.49  186781  21951.7  3160.3
    5987.46  169032  19826.7  2851.3
    5988.51  177908  20900.7  2994.3
    5989.48  185679  21883.7  3104.3
    5990.53  188198  22177.7  3035.3
    5991.5  188820  22220.7  2883.3
    5992.47  188666  22170.7  2771.3
    5993.52  189154  22268.7  2700.3
    5994.49  188827  22175.7  2629.3
    5995.47  188767  22120.7  2583.3
    5996.51  188636  22132.7  2571.3
    5997.49  188577  22154.7  2573.3
    5998.54  188289  22119.7  2540.3
    5999.51  188182  22024.7  2450.3
    6000.49  187466  21724.7  2322.3
    6001.46  185668  21086.7  2169.3
    6002.51  185162  20615.7  2049.3
    6003.49  187404  20562.7  1995.3
    6004.47  187648  20472.7  1944.3
    6005.52  187367  20183.7  1880.3
    6006.5  187211  19876.7  1820.3
    6007.47  186939  19563.7  1759.3
    6008.53  186982  19182.7  1691.3
    6009.5  186579  19022.7  1648.3
    6010.94  186562  19108.5  1616.07
    6012.82  186293  18931.5  1634.18
    6014.78  186326  19072.6  1730.41
    6016.81  186174  19474.8  1792.77
    6018.93  186332  19715  1782.23
    6021.12  186253  19929.3  1769.82
    6023.39  186561  19976.6  1783.52
    6025.73  186793  19938  1798.34
    6028.16  186975  20039.4  1782.27
    6030.58  187229  20357.9  1782.32
    6033.16  187595  20712.4  1797.49
    6035.82  188200  20986  1822.77
    6038.56  188421  21205.7  1834.18
    6041.37  189216  21417.4  1838.7
    6044.26  189567  21522.2  1855.33
    6047.24  190332  21657  1885.08
    6050.29  190900  21794.9  1916.95
    6053.42  191662  21871.8  1965.94
    6056.56  192767  21959.8  2019.04
    6059.85  193434  22033.8  2058.26
    6063.22  193632  22037.9  2072.6
    6066.68  194562  22170  2063.05
    6070.13  195584  22367.2  2036.62
    6073.75  196975  22627.5  2019.31
    6077.37  197962  22913.8  2081.11
    6081.15  199097  23209.1  2171.03
    6084.93  200476  23560.5  2269.07
    6088.8  201596  23899  2302.22
    6092.83  203094  24286.5  2255.49
    6096.86  204565  24656.1  2193.88
    6100.98  205861  24927.8  2158.39
    6105.18  207358  25240.4  2216.01
    6109.46  208965  25623.2  2354.75
    6113.83  210481  25990  2485.6
    6118.28  212039  26323.8  2557.57
    6122.74  213793  26686.7  2582.66
    6127.36  215566  27088.7  2621.87
    6131.99  217220  27490.7  2696.19
    6136.79  218995  27873.8  2761.63
    6141.59  220638  28216.9  2788.18
    6146.48  222364  28586.1  2813.86
    6151.46  224606  29073.3  2829.65
    6156.53  226487  29552.6  2862.55
    6161.6  228295  29935.9  2859.58
    6166.84  230171  30347.3  2850.72
    6172.1  232102  30844.8  2940.97
    6177.52  233944  31400.3  3080.35
    6182.95  236037  31921.8  3197.84
    6188.47  238158  32431.4  3281.45
    6194.08  240450  33010.1  3358.17
    6199.7  242521  33622.8  3447.01
    6205.5  244679  34303.6  3538.97
    6211.3  246718  34865.4  3637.05
    6217.2  249182  35453.3  3732.24
    6223.19  251503  35999.3  3771.54
    6229.2  253932  36528.3  3785.97
    6235.38  255333  37004.3  3779.51
    6241.56  252752  36887.4  3732.17
    6247.85  260246  38375.5  3894.94
    6254.23  262910  39102.8  4052.84
    6260.71  265142  39730  4230.85
    6267.2  267665  40403.3  4333.98
    6273.79  270051  41113.7  4424.22
    6280.48  272542  41894.1  4537.58
    6287.26  274929  42632.6  4635.05
    6294.06  277044  43292.1  4723.65
    6300.95  279984  44116.8  4850.36
    6307.95  282152  44779.4  4954.19
    6315.05  285000  45599.1  5054.13
    6322.16  287409  46420.8  5125.19
    6329.38  289663  47237.6  5207.37
    6336.69  292340  48159.5  5312.66
    6344.11  294576  48975.4  5435.07
    6351.55  297243  49792.4  5574.6
    6359.09  299575  50607.4  5711.25
    6366.65  301840  51430.5  5874.01
    6374.31  304298  52286.7  6016.89
    6382.07  306670  53220.8  6147.88
    6389.95  308893  54121.1  6278.99
    6397.84  311319  55002.4  6413.22
    6405.84  313803  55973.7  6543.57
    6413.95  315760  56856.2  6672.03
    6422.08  318064  57802.6  6823.61
    6430.32  320474  58837.1  6974.31
    6438.58  322482  59744.7  7090.12
    6446.95  324757  60710.3  7230.05
    6455.43  326707  61739  7409.09
    6463.93  328984  62834.7  7604.26
    6472.55  330923  63829.5  7766.54
    6481.28  333206  64878.3  7941.93
    6490.03  335244  65908.2  8113.44
    6498.9  337257  66898.2  8264.09
    6507.79  339223  67937.2  8429.83
    6516.8  340971  68965.2  8618.69
    6525.92  342909  70000.4  8798.67
    6535.07  344599  71029.5  8982.78
    6544.25  346119  72088.7  9155.98
    6553.54  347141  73041.1  9304.32
    6562.95  348838  74167.4  9490.77
    6572.4  350425  75299.7  9691.33
    6581.96  351585  76288.2  9883.01
    6591.55  353605  77462.7  10094.8
    6601.26  355240  78547.3  10288.7
    6611.09  356541  79586.8  10477.8
    6620.95  357910  80734.5  10681.9
    6630.85  359222  81841.2  10881.2
    6640.87  360124  82884.9  11075.6
    6650.92  360874  83873.8  11268.1
    6661.1  362431  85086.7  11497.7
    6671.31  362968  86056.6  11691.4
    6681.64  363230  86975.5  11870.3
    6692.01  362910  87762.6  12037.2
    6702.51  345046  84970.7  11701.3
    6713.04  373810  92231.9  12764.5
    6723.7  370347  92245.1  12821.8
    6734.4  368155  92640.3  12947.3
    6745.14  370020  94074.6  13229.8
    6756  367722  94577  13371.5
    6766.91  374243  97116.4  13800.3
    6777.94  375201  98361.9  14055.2
    6789.02  373144  98817.4  14201.2
    6800.23  367642  98278  14192.3
    6811.48  387769  104609  15201.6
    6822.77  379223  103596  15128.9
    6834.19  377822  104301  15302.4
    6845.66  377270  105217  15536
    6857.16  377324  106326  15774.7
    6868.81  376758  107265  15996.6
    6880.5  376888  108408  16258.5
    6892.33  376582  109432  16501.6
    6904.2  376469  110541  16769.8
    6916.11  375998  111521  17012.1
    6928.18  374764  112362  17227.5
    6940.28  375445  113680  17537.1
    6952.43  374368  114567  17762.7
    6964.62  374080  115662  18031.5
    6976.96  373898  116800  18299.4
    6989.35  373291  117776  18556.4
    7001.88  372982  118901  18828.5
    7014.47  372780  120034  19107.7
    7027.1  371566  120825  19333.1
    7039.77  371462  122040  19628.6
    7052.6  371176  123148  19901.1
    7065.48  370669  124219  20181.8
    7078.41  370205  125289  20460.7
    7091.39  369286  126300  20726.6
    7104.53  368501  127265  20995.7
    7111.06  368443  127872  21152.5

File: cr2o3_100K_001.xdi
# XDI/1.0
# Column.1: energy eV
# Column.2: i0
# Column.3: itrans
# Column.4: irefer
# Beamline.name: SSRL 2-3
# Beamline.notes: vert slits = 0.6mm
# Detector.I0: N2 15cm
# Detector.I1: N2 30cm
# Detector.I2: N2 15cm
# Element.edge: K
# Element.symbol: Cr
# Mono.d_spacing: 3.13550
# Mono.name: Si(111)
# Mono.notes: unfocused, detuned 75%, clockwise at E=5990eV
# Sample.formula: Cr2O3
# Sample.name: Cr2O3
# Sample.prep: powder on tape (4 layers)
# Sample.reference: Cr foil
# Sample.temperature: 100K
# Scan.start_time: 1997-04-18 21:40:35
# ///
#    Note: mono d_spacing is nominal!
#     exafs to K16
#     396  E XMU XMUR I0
#-------------
#   energy   i0   itrans  irefer
    5759.99  210049  10935.7  1395.3
    5780.01  209822  11360.7  1469.3
    5799.97  209475  11784.7  1543.3
    5820  209240  12224.7  1620.3
    5839.97  208881  12680.7  1700.3
    5860.02  208693  13145.7  1783.3
    5879.99  208016  13593.7  1868.3
    5899.97  207600  14074.7  1955.3
    5920.02  206827  14530.7  2043.3
    5939.99  206425  15009.7  2134.3
    5959.97  205723  15461.7  2222.3
    5970.49  205235  15679.7  2263.3
    5971.53  203831  15583.7  2250.3
    5972.49  202098  15473.7  2236.3
    5973.53  204817  15701.7  2271.3
    5974.5  205697  15789.7  2282.3
    5975.46  205736  15814.7  2288.3
    5976.51  205893  15847.7  2293.3
    5977.47  205830  15860.7  2295.3
    5978.52  206012  15892.7  2303.3
    5979.48  205680  15893.7  2302.3
    5980.53  205931  15924.7  2306.3
    5981.49  205793  15926.7  2308.3
    5982.46  206248  15979.7  2317.3
    5983.51  206129  15983.7  2317.3
    5984.48  206045  15988.7  2317.3
    5985.52  203968  15831.7  2292.3
    5986.49  190871  14816.7  2143.3
    5987.46  179932  13962.7  2017.3
    5988.51  196467  15232.7  2185.3
    5989.48  201901  15598.7  2201.3
    5990.53  203315  15499.7  2074.3
    5991.5  203976  15072.7  1925.3
    5992.47  204186  15091.7  1867.3
    5993.52  203934  14856.7  1791.3
    5994.49  204205  14290.7  1690.3
    5995.47  204242  13986.7  1636.3
    5996.51  204063  14064.7  1645.3
    5997.49  204348  14018.7  1634.3
    5998.54  204183  13677.7  1562.3
    5999.51  203956  12676.7  1397.3
    6000.49  203450  10814.7  1146.3
    6001.46  201039  8417.7   861.3
    6002.51  202310  6642.7   661.3
    6003.49  204198  6073.7   591.3
    6004.47  204125  5529.7   528.3
    6005.52  204129  4506.7   425.3
    6006.5  203895  3723.7   347.3
    6007.47  204019  2884.7   265.3
    6008.53  203655  2211.7   200.3
    6009.5  203887  2175.7   193.3
    6010.94  203607  2254.46   198.064
    6012.82  203869  1910.51   175.181
    6014.78  204061  2321.62   219.415
    6016.81  204384  2889.78   272.765
    6018.93  204342  3229   299.233
    6021.12  204615  3543.27   321.817
    6023.39  205187  3343.6   307.518
    6025.73  205477  3132.98   291.335
    6028.16  206194  3308.42   301.27
    6030.58  206499  3892.91   350.321
    6033.16  207257  4460.45   397.49
    6035.82  207779  4853.05   429.774
    6038.56  208717  5192.7   458.176
    6041.37  209514  5308.41   465.695
    6044.26  210479  5243.17   463.331
    6047.24  211580  5213.99   464.083
    6050.29  212446  5194.86   466.952
    6053.42  213737  4908.78   451.938
    6056.56  214809  4626.76   435.041
    6059.85  215891  4402.79   421.26
    6063.22  216827  4151.88   400.597
    6066.68  218003  4017.02   382.05
    6070.13  219466  4006.22   373.621
    6073.75  221130  4068.47   374.307
    6077.37  222581  4254.78   396.111
    6081.15  224102  4401.14   422.031
    6084.93  225954  4663.55   459.069
    6088.8  227800  4940.02   485.223
    6092.83  229596  5225.55   491.494
    6096.86  231536  5452.12   491.882
    6100.98  233533  5455.75   480.387
    6105.18  235565  5504.44   496.008
    6109.46  237738  5691.18   536.746
    6113.83  240109  5886.98   576.601
    6118.28  242263  5961.83   589.573
    6122.74  244360  6043.73   596.662
    6127.36  246644  6198.69   612.868
    6131.99  249323  6335.71   634.191
    6136.79  251952  6347.77   640.629
    6141.59  254570  6327.89   637.185
    6146.48  256973  6356.07   637.857
    6151.46  259844  6517.3   645.648
    6156.53  262389  6744.58   663.554
    6161.6  265217  6712.92   651.578
    6166.84  268033  6731.32   645.718
    6172.1  271094  6977.76   677.974
    6177.52  273907  7399.27   735.349
    6182.95  277097  7559.82   766.839
    6188.47  280043  7700.43   790.447
    6194.08  283461  7937.1   819.17
    6199.7  286899  8396.82   872.012
    6205.5  290031  8913.59   931.97
    6211.3  293297  9159.43   966.044
    6217.2  296326  9272.31   988.236
    6223.19  299670  9219.25   979.545
    6229.2  303104  9187.24   963.971
    6235.38  304125  9292.29   963.512
    6241.56  302931  9467.39   972.172
    6247.85  313919  9989.54  1028.95
    6254.23  317671  10338.7  1089.84
    6260.71  321737  10556  1135.85
    6267.2  325478  10695.3  1160.97
    6273.79  329282  11052.7  1205.22
    6280.48  333339  11482.1  1258.58
    6287.26  337191  11827.6  1298.05
    6294.06  340596  12047.2  1327.65
    6300.95  344736  12313.7  1370.36
    6307.95  348804  12452.4  1392.19
    6315.05  352531  12760.1  1425.13
    6322.16  356749  13225.8  1475.19
    6329.38  360701  13746.7  1530.37
    6336.69  365279  14308.5  1595.66
    6344.11  369508  14719.4  1647.07
    6351.55  373602  14947.4  1688.6
    6359.09  377562  15207.4  1732.24
    6366.65  381583  15515.5  1790.01
    6374.31  385600  15855.6  1843.88
    6382.07  390031  16416.8  1916.88
    6389.95  394236  16824.1  1972.99
    6397.84  398947  17119.4  2015.22
    6405.84  403476  17558.7  2074.57
    6413.95  407106  18008.1  2133.03
    6422.08  411622  18446.6  2201.61
    6430.32  415729  18981.1  2267.31
    6438.58  420686  19470.7  2331.12
    6446.95  424802  19885.3  2389.05
    6455.43  429055  20578  2498.09
    6463.93  433738  21338.7  2611.26
    6472.55  438397  21980.5  2700.54
    6481.28  442924  22514.3  2783.93
    6490.03  447285  23028.2  2863.45
    6498.9  452238  23493.2  2931.08
    6507.79  455855  23991.2  3001.83
    6516.8  460441  24551.3  3090.69
    6525.92  465325  24998.4  3172.67
    6535.07  469670  25640.5  3276.77
    6544.25  473363  26334.7  3376.98
    6553.54  477459  27092  3486.32
    6562.95  481765  27908.4  3603.77
    6572.4  485861  28778.7  3730.33
    6581.96  490703  29481.2  3842.01
    6591.55  495197  30083.7  3947.81
    6601.26  499516  30573.2  4037.73
    6611.09  504425  31208.8  4139.76
    6620.95  508391  32079.5  4281.91
    6630.85  513633  32936.2  4411.18
    6640.87  517700  33757  4550.56
    6650.92  522049  34659.8  4695.06
    6661.1  525452  35526.7  4838.67
    6671.31  529172  36325.6  4966.41
    6681.64  533200  37124.6  5105.26
    6692.01  535782  37817.6  5221.23
    6702.51  510926  36482.7  5067.31
    6713.04  551404  39990.9  5574.52
    6723.7  551980  40615.1  5685.83
    6734.4  553476  41382.3  5825.26
    6745.14  558821  42428.6  6005.82
    6756  560058  43215  6151.49
    6766.91  568581  44599.4  6381.27
    6777.94  573467  45733.9  6579.17
    6789.02  575327  46544.4  6729.19
    6800.23  573664  47063  6850.33
    6811.48  593100  49495.6  7237.58
    6822.77  591779  50276.4  7387.95
    6834.19  594603  51327.1  7576.43
    6845.66  597793  52476.9  7789.03
    6857.16  601520  53641.7  8007.75
    6868.81  604516  54797.7  8219.59
    6880.5  608307  55888.6  8425.54
    6892.33  610529  56905.6  8622.61
    6904.2  613758  58076.7  8853.8
    6916.11  616618  59326.8  9093.11
    6928.18  619018  60530  9334.52
    6940.28  622347  61811.3  9587.06
    6952.43  625263  63150.5  9847.71
    6964.62  628125  64527.8  10106.5
    6976.96  632004  65993.3  10399.4
    6989.35  634264  67247.8  10655.4
    7001.88  637670  68646.3  10927.5
    7014.47  640134  69907.8  11185.7
    7027.1  642451  71174.4  11441.1
    7039.77  645760  72648.1  11734.6
    7052.6  648456  74060.8  12020.2
    7065.48  651001  75567.6  12325.9
    7078.41  654270  77217.5  12653.7
    7091.39  656214  78721.3  12969.6
    7104.53  658319  80088.3  13269.7
    7111.06  659603  80837.5  13423.5

File: cr2o3_100K_002.xdi
# XDI/1.0
# Column.1: energy eV
# Column.2: i0
# Column.3: itrans
# Column.4: irefer
# Beamline.name: SSRL 2-3
# Beamline.notes: vert slits = 0.6mm
# Detector.I0: N2 15cm
# Detector.I1: N2 30cm
# Detector.I2: N2 15cm
# Element.edge: K
# Element.symbol: Cr
# Mono.d_spacing: 3.13550
# Mono.name: Si(111)
# Mono.notes: unfocused, detuned 75%, clockwise at E=5990eV
# Sample.formula: Cr2O3
# Sample.name: Cr2O3
# Sample.prep: powder on tape (4 layers)
# Sample.reference: Cr foil
# Sample.temperature: 100K
# Scan.start_time: 1997-04-18 21:40:35
# ///
#    Note: mono d_spacing is nominal!
#     exafs to K16
#     396  E XMU XMUR I0
#-------------
#   energy   i0   itrans  irefer
    5759.99  210667  10964.7  1402.3
    5780.01  210682  11398.7  1474.3
    5799.97  210435  11834.7  1550.3
    5820  210073  12275.7  1629.3
    5839.97  209787  12733.7  1710.3
    5860.02  209488  13200.7  1794.3
    5879.99  209017  13665.7  1879.3
    5899.97  208458  14128.7  1966.3
    5920.02  207870  14604.7  2056.3
    5939.99  207192  15068.7  2147.3
    5959.97  206739  15534.7  2235.3
    5970.49  206186  15739.7  2275.3
    5971.53  204628  15642.7  2260.3
    5972.49  202769  15523.7  2247.3
    5973.53  205836  15779.7  2285.3
    5974.5  206443  15854.7  2298.3
    5975.46  206646  15879.7  2301.3
    5976.51  206439  15888.7  2303.3
    5977.47  206622  15929.7  2308.3
    5978.52  206417  15931.7  2310.3
    5979.48  206708  15973.7  2315.3
    5980.53  206643  15980.7  2317.3
    5981.49  206725  15995.7  2319.3
    5982.46  206783  16019.7  2323.3
    5983.51  206874  16037.7  2324.3
    5984.48  206908  16053.7  2326.3
    5985.52  204776  15892.7  2302.3
    5986.49  191474  14864.7  2151.3
    5987.46  180689  14022.7  2025.3
    5988.51  197308  15291.7  2193.3
    5989.48  202483  15643.7  2207.3
    5990.53  204177  15561.7  2078.3
    5991.5  204505  15105.7  1931.3
    5992.47  204796  15149.7  1873.3
    5993.52  205028  14936.7  1798.3
    5994.49  205116  14346.7  1697.3
    5995.47  204778  14027.7  1642.3
    5996.51  204776  14119.7  1652.3
    5997.49  204401  14024.7  1636.3
    5998.54  204721  13699.7  1564.3
    5999.51  204746  12709.7  1399.3
    6000.49  203948  10816.7  1147.3
    6001.46  201586  8432.7   863.3
    6002.51  202795  6645.7   659.3
    6003.49  204737  6086.7   591.3
    6004.47  204547  5529.7   525.3
    6005.52  204496  4504.7   422.3
    6006.5  204544  3724.7   343.3
    6007.47  204457  2887.7   261.3
    6008.53  204564  2223.7   198.3
    6009.5  204375  2184.7   192.3
    6010.94  204387  2267.46   196.064
    6012.82  204439  1917.51   172.181
    6014.78  204571  2335.62   217.415
    6016.81  204873  2900.78   269.765
    6018.93  204866  3244   294.233
    6021.12  205234  3556.27   318.817
    6023.39  205680  3349.6   302.518
    6025.73  206044  3141.98   286.335
    6028.16  207040  3323.41   297.27
    6030.58  207214  3909.91   343.321
    6033.16  207749  4473.45   391.49
    6035.82  208533  4874.05   426.774
    6038.56  209470  5212.7   451.176
    6041.37  210183  5325.41   458.695
    6044.26  211324  5267.17   456.331
    6047.24  211958  5223.99   458.083
    6050.29  213144  5215.85   463.952
    6053.42  214514  4928.78   448.938
    6056.56  215651  4650.76   432.041
    6059.85  216657  4423.79   417.26
    6063.22  217369  4166.88   395.597
    6066.68  218686  4034.02   377.05
    6070.13  219998  4021.22   366.621
    6073.75  221970  4085.47   367.307
    6077.37  223800  4276.78   393.111
    6081.15  225374  4428.14   420.031
    6084.93  227135  4687.55   457.069
    6088.8  228924  4965.02   481.223
    6092.83  230892  5254.54   490.494
    6096.86  232698  5483.12   489.882
    6100.98  234649  5481.76   478.387
    6105.18  236780  5535.44   493.008
    6109.46  238682  5715.18   532.746
    6113.83  240826  5907.98   571.601
    6118.28  243413  5990.83   588.573
    6122.74  245781  6076.73   594.662
    6127.36  248009  6234.69   610.868
    6131.99  250571  6366.71   633.191
    6136.79  252850  6370.77   638.629
    6141.59  255614  6355.89   634.185
    6146.48  258247  6385.07   635.858
    6151.46  260716  6535.3   643.648
    6156.53  263528  6767.58   666.554
    6161.6  266478  6736.92   651.578
    6166.84  269334  6761.32   644.718
    6172.1  272200  6996.76   676.975
    6177.52  275402  7433.27   738.349
    6182.95  278705  7604.82   770.839
    6188.47  281268  7733.44   788.447
    6194.08  284794  7974.1   818.17
    6199.7  287620  8410.82   868.012
    6205.5  291154  8944.6   928.971
    6211.3  294223  9184.42   967.044
    6217.2  297776  9311.31   986.236
    6223.19  301246  9269.24   975.544
    6229.2  304569  9231.24   961.97
    6235.38  304856  9311.29   957.512
    6241.56  304450  9512.39   973.171
    6247.85  314959  10022.5  1025.95
    6254.23  318793  10368.8  1085.84
    6260.71  322797  10586  1135.85
    6267.2  326326  10718.3  1159.97
    6273.79  330030  11067.7  1203.22
    6280.48  333977  11501.1  1259.58
    6287.26  337884  11847.6  1298.05
    6294.06  341693  12081.1  1327.65
    6300.95  345615  12339.7  1369.36
    6307.95  349750  12480.4  1392.18
    6315.05  353771  12798.1  1432.13
    6322.16  357694  13250.8  1475.19
    6329.38  361914  13789.6  1533.37
    6336.69  365906  14328.5  1593.66
    6344.11  370283  14736.4  1651.07
    6351.55  375086  14999.4  1693.6
    6359.09  379387  15272.4  1739.24
    6366.65  382589  15549.5  1791.01
    6374.31  386597  15888.6  1844.88
    6382.07  391387  16462.8  1914.88
    6389.95  395526  16874.1  1966.99
    6397.84  400056  17159.4  2012.22
    6405.84  404500  17601.7  2066.57
    6413.95  408698  18073.1  2136.03
    6422.08  413379  18519.6  2202.61
    6430.32  417780  19063.1  2269.31
    6438.58  422368  19548.7  2332.12
    6446.95  426636  19957.3  2389.05
    6455.43  431361  20682  2491.09
    6463.93  435509  21418.7  2600.26
    6472.55  440256  22065.5  2688.54
    6481.28  444704  22594.4  2771.94
    6490.03  449277  23128.2  2853.45
    6498.9  454444  23598.2  2922.08
    6507.79  458733  24141.2  3003.83
    6516.8  462675  24663.2  3086.69
    6525.92  467743  25133.4  3175.67
    6535.07  472131  25771.5  3274.77
    6544.25  475919  26469.8  3378.99
    6553.54  480827  27278  3496.32
    6562.95  484749  28062.4  3612.76
    6572.4  489698  28999.8  3752.33
    6581.96  493828  29651.2  3860.01
    6591.55  497568  30208.7  3956.81
    6601.26  502282  30729.2  4042.73
    6611.09  506601  31328.8  4143.76
    6620.95  511192  32233.5  4281.91
    6630.85  516084  33074.2  4417.18
    6640.87  520463  33919  4556.56
    6650.92  524135  34778.8  4702.06
    6661.1  529323  35767.7  4859.68
    6671.31  533419  36598.6  4996.41
    6681.64  537433  37400.6  5131.26
    6692.01  540332  38120.6  5256.23
    6702.51  514797  36738.7  5084.31
    6713.04  555337  40238.9  5602.52
    6723.7  556082  40871.1  5721.83
    6734.4  557753  41662.3  5865.26
    6745.14  563150  42729.6  6043.82
    6756  564466  43526  6188.49
    6766.91  572445  44873.4  6415.27
    6777.94  577875  46062.9  6617.17
    6789.02  578605  46799.4  6756.19
    6800.23  577620  47394  6884.32
    6811.48  597192  49820.6  7275.58
    6822.77  595303  50565.3  7419.94
    6834.19  598216  51636.1  7615.43
    6845.66  601017  52757.9  7820.03
    6857.16  605137  53959.7  8041.76
    6868.81  608455  55148.7  8265.59
    6880.5  610876  56113.6  8454.54
    6892.33  613771  57203.6  8664.61
    6904.2  618047  58479.7  8903.8
    6916.11  621750  59813.9  9157.11
    6928.18  623615  60972  9384.52
    6940.28  626923  62268.2  9634.06
    6952.43  629724  63600.6  9898.72
    6964.62  632965  65013.9  10177.5
    6976.96  636055  66432.3  10448.4
    6989.35  637956  67638.7  10684.4
    7001.88  640494  68940.2  10946.5
    7014.47  642944  70212.8  11211.7
    7027.1  644774  71428.4  11466.1
    7039.77  648677  72962.1  11769.6
    7052.6  650675  74311.8  12045.1
    7065.48  652800  75763.6  12343.9
    7078.41  655717  77344.4  12670.7
    7091.39  657548  78861.3  12985.6
    7104.53  659740  80240.3  13281.7
    7111.06  660909  80971.5  13434.5