Folder: XASDataLibrary/data/Cu

Note: README
The XAS Data Library is designed to hold X-ray Absorption Spectra (EXAFS
and XANES) using an SQLite database, with array data encoded using JSON.
The principle goal for the library is as a proposed standard for storing
and exchanging XAS data. The implementation here is intended for initial
reference and comments. 

The idea is provide a format and set of tools for managing Libraries of
XAFS Data, and to be able to share these libraries between different
researchers and different analysis programs.  As the the base format of the
library will be created with SQLite, the SQL syntax and any third party
software that can use SQL and SQLite will be able to explore the data in
the format.  In addition, reference implementations of programmatically
interecting with the library will be provided.  

Ideally, a stand-alone GUI Data Browser and an on-line Library will be
built upon such a format.

See http://xafs.org/XasDataLibrary for additional information.


--Matt Newville  18-Feb-2011

File: Cu2S_13K_01.xdi
# XDI/1.0
# Column.1: energy eV
# Column.2: i0
# Column.3: itrans
# Column.4: irefer
# Beamline.name: SSRL 4-3
# Detector.I0: N2 15cm
# Detector.I1: Ar 30cm
# Detector.I2: Ar 15cm
# Element.edge: K
# Element.symbol: Cu
# Mono.d_spacing: 1.92009
# Mono.name: Si(220)
# Mono.notes: unfocused, detuned 50%,higher piezo, at E=9500eV
# Sample.formula: Cu2S
# Sample.name: Cu2S  cuprous sulfide
# Sample.prep: powder, mixed with B(OH)3
# Sample.reference: Cu metal foil (?)
# Sample.temperature: 13K
# Scan.start_time: 1996-07-27 16:01:27
# ///
#    Note: mono d_spacing is nominal!
#     exafs to K15
#     454  E XMU XMUR I0
#-------------
#   energy   i0   itrans  irefer
    8759.99  36329.3  172573  9157.4
    8780  35553.3  172605  9292.4
    8800  34770.3  172486  9422.41
    8820.01  34037.3  172601  9570.4
    8840.02  33254.3  172348  9680.4
    8859.98  32504.3  172162  9824.39
    8879.98  31738.3  171755  9943.4
    8899.98  31014.3  171435  10051.4
    8919.98  30294.3  170975  10173.4
    8939.98  29598.3  170386  10265.4
    8960.02  28840.3  168707  10234.4
    8961.49  28799.3  168440  10225.4
    8963.01  28706.3  168004  10195.4
    8964.53  28693.3  167954  10185.4
    8966.05  28629.3  167635  10156.4
    8967.57  28687.3  167871  10152.4
    8969.09  28631.3  167378  10109.4
    8970.61  28530.3  166549  10022.4
    8972.14  28438.3  165538  9911.4
    8973.66  28387.3  164567  9800.4
    8975.13  28331.3  162978  9558.4
    8976.65  28292.3  160286  9108.4
    8978.18  28198.3  153777  7830.4
    8979.7  28190.3  134485  5053.4
    8981.23  28120.3  102847  3327.4
    8982.7  28026.3  91256.5  3067.4
    8984.23  27944.3  81692.5  2802.4
    8985.76  27902.3  73587.5  2445.4
    8987.29  27854.3  69979.5  2210.4
    8988.76  27781.3  65855.5  1946.4
    8990.29  27757.3  63626.5  1704.4
    8991.82  27690.3  63059.5  1535.4
    8993.35  27611.3  62835.5  1451.4
    8994.83  27537.3  62767.5  1453.4
    8996.36  27503.3  61703.5  1490.4
    8997.9  27423.3  60138.5  1514.4
    8999.38  27385.3  59423.5  1506.4
    9000.91  27324.3  59048.5  1451.4
    9002.44  27288.3  59201.5  1398.4
    9003.93  27213.3  59649.5  1401.4
    9005.46  27147.3  59971.5  1441.4
    9006.94  27123.3  60075.5  1482.4
    9008.48  27041.3  59961.5  1512.4
    9010.02  26974.3  59888.5  1541.4
    9011.09  26946.3  59944.5  1552.38
    9012.22  26919.2  60062.3  1556.34
    9013.4  26870.2  60194.1  1550.26
    9014.58  26868.1  60490.7  1543.15
    9015.86  26838  60869.3  1535.02
    9017.14  26818.8  61369.7  1518.85
    9018.42  26784.7  61911.1  1500.65
    9019.81  26768.5  62559.4  1480.42
    9021.2  26728.3  63133.6  1463.16
    9022.63  26700  63638.6  1444.86
    9024.12  26664.7  63962.6  1429.54
    9025.61  26679.4  64166.5  1424.19
    9027.21  26662.1  64098.3  1430.8
    9028.75  26656.8  63885.9  1454.39
    9030.4  26620.4  63464.5  1476.94
    9032.05  26572  62920  1498.47
    9033.8  26584.6  62416.4  1520.96
    9035.5  26562.1  61858.7  1529.42
    9037.3  26468.7  61171.9  1523.85
    9039.1  26147.2  60011  1509.26
    9040.96  26581.6  60563  1507.63
    9042.87  26543.1  60014.9  1499.97
    9044.83  26713.5  60027.7  1502.27
    9046.79  26703.9  59714.4  1502.55
    9048.81  26673.3  59460  1493.8
    9050.83  26686.6  59403.6  1482.02
    9052.95  26632.9  59300  1482.2
    9055.07  26653.2  59448.3  1480.36
    9057.24  26671.5  59704.5  1476.48
    9059.42  26685.7  60110.6  1469.58
    9061.65  26698.9  60713.7  1469.64
    9063.93  26696.1  61424.6  1465.67
    9066.27  26715.3  62292.4  1467.67
    9068.6  26751.4  63218.2  1468.64
    9071.04  26731.5  63974.8  1455.58
    9073.43  26739.6  64710.3  1468.49
    9075.93  26769.7  65417.8  1493.37
    9078.43  26797.7  65987.1  1532.22
    9080.98  26813.7  66400.4  1561.04
    9083.58  26818.7  66609.5  1586.82
    9086.19  26852.7  66733.6  1611.58
    9088.85  26904.6  66745.5  1625.3
    9091.57  26894.5  66523.4  1634
    9094.28  26938.4  66384.1  1662.66
    9097.05  26813.2  65803.8  1666.3
    9099.88  26839.1  65602.4  1675.9
    9102.75  26820.9  65268.8  1665.47
    9105.64  26883.6  65169.2  1645.01
    9108.57  26908.4  65074.5  1623.52
    9111.56  26951.1  65155.7  1613
    9114.55  26949.8  65278.7  1607.45
    9117.6  26963.5  65558.7  1615.87
    9120.7  26972.1  65910.6  1622.25
    9123.8  26986.8  66358.4  1598.61
    9126.96  27038.4  66957.1  1571.94
    9130.17  27047.9  67522.7  1553.23
    9133.39  27123.5  68276.2  1562.5
    9136.71  27110  68819.6  1580.73
    9139.98  27131.5  69435.9  1610.93
    9143.36  27065  69791.1  1639.11
    9146.75  26931.4  69966.2  1689.25
    9150.19  27355.8  71401.2  1760.36
    9153.63  27382.2  71775.1  1818.44
    9157.13  27371.6  71992.9  1877.49
    9160.68  27389.9  72157.6  1889.5
    9164.29  27758.2  73255.2  1882.49
    9167.9  27740.5  73308.7  1844.45
    9171.57  27741.8  73431.1  1813.38
    9175.25  27754  73574.5  1802.27
    9178.98  27808.2  73879.7  1806.14
    9182.76  27830.4  74172.8  1818.97
    9186.6  27821.6  74412.9  1831.78
    9190.45  27863.7  74825.8  1847.55
    9194.35  27865.8  75174.6  1867.29
    9198.26  27918.9  75703.4  1878
    9202.22  27966  76227  1871.68
    9206.24  27916  76535.6  1842.33
    9210.27  27979  77145  1843.95
    9214.35  28017  77679.3  1861.54
    9218.49  28065.9  78220.6  1888.1
    9222.63  28085.9  78661.7  1918.62
    9226.83  28073.8  79023.8  1969.12
    9231.04  28104.6  79543.8  2015.59
    9235.36  28121.5  80054.7  2065.02
    9239.63  28175.3  80639.4  2091.42
    9244.01  28152.1  81006.1  2095.8
    9248.39  28209.9  81578.6  2107.14
    9252.83  28218.6  82005.1  2119.45
    9257.28  28269.3  82573.4  2132.73
    9261.79  28268  83026.8  2135.99
    9266.35  28277.7  83509  2136.21
    9270.93  28276.4  83964  2140.39
    9275.5  28295  84448  2147.55
    9280.19  28345.6  85060.9  2160.68
    9284.89  28300.1  85388.7  2169.78
    9289.64  28356.7  86003.4  2178.84
    9294.4  28367.2  86440  2195.88
    9299.22  28370.7  86848.4  2210.88
    9304.05  28365.2  87235.8  2230.86
    9308.93  28352.6  87626.1  2260.8
    9313.88  28347  88061.4  2295.71
    9318.83  28393.4  88670.5  2336.6
    9323.84  28361.8  89040.5  2348.45
    9328.86  28392.1  89644.4  2366.27
    9333.94  28434.4  90343.2  2399.06
    9339.08  28547.7  91274.9  2443.82
    9344.23  28552.9  91880.5  2474.54
    9349.43  28554.2  92484  2492.24
    9354.65  28427.4  92685.5  2501.91
    9359.92  28429.6  93287.8  2516.55
    9365.2  28399.7  93771  2532.15
    9370.55  28374.8  94264.2  2552.73
    9375.95  28382.9  94876.2  2564.27
    9381.37  28361  95367.1  2576.78
    9386.84  28393.1  96021  2595.26
    9392.33  28346.1  96421.7  2607.72
    9397.87  28311.1  96858.4  2631.14
    9403.48  28371.1  97620.9  2660.53
    9409.09  28308  97944.4  2687.89
    9414.72  28278  98365.7  2731.22
    9420.4  28253.9  98817  2763.52
    9426.15  28217.7  99250.1  2787.79
    9431.91  28211.6  99808.2  2804.02
    9437.73  28158.4  100184  2821.23
    9443.56  28147.2  100747  2834.4
    9449.46  28132  101344  2866.55
    9455.36  28081.7  101814  2891.66
    9461.32  28043.4  102290  2868.74
    9467.35  27988.1  102884  2957.8
    9473.4  27924.8  103355  2971.82
    9479.44  27908.4  103987  2991.81
    9485.56  27862  104550  3015.77
    9491.73  27820.6  105079  3032.7
    9497.92  27776.2  105600  3049.6
    9504.12  27751.7  106170  3078.47
    9510.38  27750.2  106831  3105.31
    9516.71  27672.7  107211  3132.11
    9523.05  27578.2  107526  3164.89
    9529.45  27342.6  107286  3192.63
    9535.86  27485  108499  3236.34
    9542.28  27436.4  108992  3264.03
    9548.83  27353.8  109368  3291.68
    9555.33  27254.1  109679  3317.31
    9561.9  27186.4  110101  3349.9
    9568.53  27144.7  110639  3383.46
    9575.18  27047.9  110947  3413.99
    9581.89  26995.2  111461  3444.49
    9588.61  26930.4  111941  3475.96
    9595.34  26897.5  112589  3504.4
    9602.15  26795.7  112964  3537.8
    9609.02  26724.8  113497  3568.18
    9615.9  26645.9  113966  3588.53
    9622.79  26632  114703  3626.84
    9629.75  26571  115232  3665.13
    9636.78  26490.1  115674  3700.38
    9643.82  26430.1  116212  3728.61
    9650.88  26312  116479  3773.79
    9658  26281  117073  3814.96
    9665.13  26165.9  117234  3848.09
    9672.34  26092.8  117747  3887.19
    9679.55  26014.7  118192  3928.26
    9686.78  25943.5  118705  3959.3
    9694.08  25853.3  119121  3979.31
    9701.45  25775.1  119553  4023.28
    9708.83  25739.9  120211  4058.23
    9716.23  25687.6  120763  4100.14
    9723.7  25605.3  121260  4130.03
    9731.17  25528  121714  4170.88
    9738.73  25419.7  122048  4205.71
    9746.29  25308.3  122387  4233.5
    9753.93  25226.9  122883  4274.26
    9761.58  25153.5  123405  4307
    9769.24  25079.1  123895  4344.7
    9776.98  25014.6  124482  4388.37
    9784.73  24936.1  124935  4437
    9792.55  24838.6  125343  4468.61
    9800.39  24718.1  125690  4506.19
    9808.24  24685.5  126398  4558.74
    9816.17  24590.9  126803  4595.26
    9824.1  24616.3  127836  4656.74
    9832.12  24439.6  127839  4684.2
    9840.15  24377  128407  4722.62
    9848.19  24333.3  129060  4777.02
    9852.28  24269.9  129223  4799.2

File: Cu_azurite_13K_01.xdi
# XDI/1.0
# Column.1: energy eV
# Column.2: i0
# Column.3: itrans
# Column.4: irefer
# Beamline.name: SSRL 4-3
# Detector.I0: N2 15cm
# Detector.I1: Ar 30cm
# Detector.I2: Ar 15cm
# Element.edge: K
# Element.symbol: Cu
# Mono.d_spacing: 1.92009
# Mono.name: Si(220)
# Mono.notes: unfocused, detuned 50%,higher piezo, at E=9010eV
# Sample.formula: Cu3OH_2CO3_2
# Sample.name: Cu3(CO3)2(OH)2  azurite
# Sample.prep: powder, mixed with B(OH)3
# Sample.reference: Cu metal foil (?)
# Sample.temperature: 13K
# Scan.start_time: 1996-07-25 16:43:38
# ///
#    Note: mono d_spacing is nominal!
#     exafs to K15
#     432  E XMU XMUR I0
#-------------
#   energy   i0   itrans  irefer
    8759.98  25833.9  18256.2  8669.8
    8779.99  25164.9  18132.2  8757.8
    8800  24499.9  18013.2  8838.8
    8820  23837.9  17878.2  8925.8
    8840.01  23266.9  17787.2  9028.8
    8860.02  22649.9  17653.2  9116.8
    8879.98  22021.9  17489.2  9180.8
    8899.98  21415.9  17333.2  9233.8
    8919.98  20862.9  17191.2  9303.8
    8940.02  20077.9  16833.2  9236.8
    8960.02  19479.9  16535.2  9154.8
    8960.98  19431.9  16501.2  9131.8
    8961.99  19350.9  16433.2  9102.8
    8963  19241.9  16353.2  9064.8
    8964.02  19235.9  16340.2  9056.8
    8964.98  19141.9  16268.2  8998.8
    8965.99  19129.9  16254.2  8983.8
    8967.01  19146.9  16268.2  8984.8
    8968.02  19042.9  16181.2  8911.8
    8968.98  18983.9  16120.2  8856.8
    8970  18953.9  16080.2  8832.8
    8971.01  18875.9  16007.2  8769.8
    8971.98  18840.9  15959.2  8714.8
    8972.99  18770.9  15873.2  8633.8
    8974.01  18755.9  15828.2  8554.8
    8975.02  18694.9  15726.2  8412.8
    8975.99  18691.9  15638.2  8226.8
    8977  18655.9  15429.2  7855.8
    8978.02  18601.9  15272.2  7123.8
    8978.99  18562.9  15219.2  5856.8
    8980  18545.9  15128.2  4609.8
    8981.02  18499.9  14883.2  3945.8
    8981.99  18472.9  14508.2  3790.8
    8983  18414.9  13821.2  3692.8
    8984.02  18392.9  12523.2  3346.8
    8984.99  18353.9  10373.2  2749.8
    8986.01  18298.9  8021.2  2138.8
    8986.98  18260.9  6671.2  1776.8
    8987.99  18262.9  6058.2  1561.8
    8989.01  18211.9  5656.2  1385.8
    8989.98  18162.9  5093.2  1209.8
    8991  18152.9  4220.2  1027.8
    8992.02  18112.9  3274.2   877.8
    8992.99  18108.9  2660.2   796.8
    8994.01  18040.9  2347.2   761.8
    8994.98  18038.9  2239.2   757.8
    8996  18006.9  2165.2   762.8
    8997.02  17942.9  2065.2   758.8
    8997.99  17954.9  1985.2   758.8
    8999.01  17926.9  1951.2   756.8
    8999.98  17909.9  2024.2   753.8
    9001.01  17860.9  2180.2   758.8
    9001.98  17847.9  2377.2   764.8
    9003  17801.9  2551.2   767.8
    9004.02  17772.9  2694.2   783.799
    9004.99  17751.9  2798.2   802.8
    9006.02  17716.9  2898.2   825.8
    9006.99  17687.9  2995.2   843.8
    9008.01  17676.9  3100.2   861.8
    9008.99  17636.9  3156.2   876.8
    9010.01  17607.9  3204.2   891.8
    9011.08  17577.9  3230.14   898.78
    9012.21  17591.8  3256.94   901.718
    9013.39  17536.7  3269.62   896.615
    9014.57  17489.6  3299.17   898.47
    9015.85  17487.5  3359.6   899.285
    9017.14  17439.3  3420.89   891.057
    9018.42  17433.1  3507.06   886.79
    9019.8  17415.8  3606.09   884.481
    9021.19  17408.5  3708   882.13
    9022.63  17388.2  3802.78   880.739
    9024.12  17394.8  3883.43   876.306
    9025.61  17370.5  3931.96   878.831
    9027.15  17377  3955.36   883.317
    9028.74  17376.6  3925.62   897.76
    9030.39  17363.1  3847.76   906.162
    9032.04  17380.6  3727.77   912.523
    9033.74  17362  3581.65   909.843
    9035.49  17344.4  3427.41   903.122
    9037.24  17305.8  3279.04   894.359
    9039.05  17050.1  3104.53   876.555
    9040.9  17465.4  3093.9   869.709
    9042.81  17481.7  3044.14   867.823
    9044.77  17516.9  3011.25   864.896
    9046.74  17483.1  2977.24   863.928
    9048.75  17493.3  2965.09   860.918
    9050.77  17501.4  2977.82   857.866
    9052.84  17501.5  3002.42   860.774
    9054.96  17560.6  3046.89   867.64
    9057.13  17544.6  3080.24   867.465
    9059.36  17585.6  3127.45   871.249
    9061.59  17603.6  3155.53   870.992
    9063.87  17604.5  3162.49   869.693
    9066.16  17659.4  3167.32   868.354
    9068.54  17662.3  3170.02   862.974
    9070.93  17693.1  3190.59   858.55
    9073.32  17707.9  3225.04   865.087
    9075.82  17744.7  3289.36   883.583
    9078.32  17760.4  3359.54   902.035
    9080.87  17832.1  3459.6   928.449
    9083.42  17852.8  3547.53   945.821
    9086.08  17899.4  3625.33   969.151
    9088.69  17935  3677.01   976.442
    9091.4  17963.5  3713.55   994.689
    9094.12  18041.1  3730.97  1010.9
    9096.94  18032.5  3710.26  1019.06
    9099.71  18047  3695.42  1025.19
    9102.59  18101.4  3679.45  1022.27
    9105.47  18118.8  3661.36  1009.31
    9108.41  18202.2  3652.13   998.311
    9111.34  18264.5  3660.78   994.27
    9114.33  18244.8  3655.3   993.189
    9117.38  18298  3668.69  1001.07
    9120.48  18364.2  3696.95  1005.9
    9123.58  18374.4  3701.09   995.695
    9126.74  18451.6  3710.09   984.448
    9129.95  18470.7  3706.97   971.161
    9133.17  18527.8  3714.72   971.832
    9136.44  18535.8  3724.34   981.463
    9139.76  18602.8  3741.83   995.05
    9143.09  18575.8  3745.2  1013.6
    9146.48  18614.8  3769.43  1039.1
    9149.92  18867.7  3831.54  1077.57
    9153.36  18905.6  3856.52  1109.99
    9156.85  18810.4  3851.37  1135.37
    9160.41  18892.2  3894.09  1146.71
    9163.97  19159  3969.69  1155.02
    9167.58  19119.7  4003.15  1137.27
    9171.25  19157.5  4052.49  1125.49
    9174.92  19197.1  4110.69  1127.67
    9178.65  19247.8  4170.78  1133.8
    9182.44  19289.4  4226.73  1149.9
    9186.22  19353  4287.55  1162.95
    9190.07  19434.5  4333.25  1177.96
    9193.97  19482  4356.81  1185.93
    9197.88  19548.5  4391.26  1200.86
    9201.84  19596.9  4416.56  1201.75
    9205.86  19637.3  4437.75  1187.59
    9209.89  19721.7  4454.8  1190.4
    9213.97  19772  4452.73  1198.16
    9218.05  19780.3  4454.52  1208.88
    9222.2  19852.6  4501.19  1227.57
    9226.4  19931.8  4556.73  1264.21
    9230.6  19967  4584.14  1287.8
    9234.86  19851.2  4579.43  1302.36
    9239.19  19920.3  4621.59  1322.88
    9243.51  19930.4  4667.61  1336.36
    9247.9  19983.5  4707.51  1342.79
    9252.34  20033.5  4724.28  1355.18
    9256.79  20092.5  4738.92  1357.53
    9261.29  20151.5  4755.44  1361.84
    9265.81  20154.4  4768.82  1362.11
    9270.38  20224.3  4815.08  1369.34
    9275.01  20250.2  4869.21  1386.53
    9279.64  20326  4966.21  1401.67
    9284.33  20361.8  5039.08  1410.78
    9289.03  20425.6  5077.83  1422.84
    9293.79  20458.3  5107.44  1430.86
    9298.61  20499  5123.93  1446.84
    9303.44  20587.6  5179.29  1469.78
    9308.32  20591.3  5240.52  1492.68
    9313.21  20657.8  5324.62  1519.54
    9318.16  20702.4  5412.6  1545.35
    9323.17  20769.9  5460.44  1561.13
    9328.19  20777.4  5478.16  1570.86
    9333.27  20826.9  5499.75  1589.55
    9338.35  20890.3  5534.21  1620.2
    9343.5  20956.7  5566.54  1640.81
    9348.7  21047  5615.75  1656.38
    9353.92  21148.3  5643.82  1664.91
    9359.19  21245.6  5690.77  1686.4
    9364.48  21313.9  5743.59  1695.84
    9369.82  21408.1  5828.28  1719.25
    9375.17  21527.3  5920.84  1744.61
    9380.58  21911.4  6087.27  1791.93
    9386.05  21977.5  6155.58  1809.21
    9391.53  22003.6  6194.75  1823.45
    9397.08  22090.7  6248.8  1842.64
    9402.63  22110.7  6294.73  1864.8
    9408.25  22148.7  6357.51  1887.91
    9413.87  22224.6  6416.18  1922.99
    9419.55  22211.5  6439.72  1944.02
    9425.25  22246.4  6514.12  1958.01
    9431  22284.2  6570.4  1984.96
    9436.82  22300.1  6607.55  2003.87
    9442.65  22356.8  6675.57  2016.74
    9448.49  22364.6  6720.47  2036.57
    9454.44  22375.3  6763.23  2052.35
    9460.35  22412  6825.87  2055.09
    9466.38  22429.6  6900.38  2118.8
    9472.36  22452.2  6975.76  2130.46
    9478.47  22504.8  7034.01  2158.08
    9484.52  22520.3  7093.14  2178.66
    9490.7  22542.8  7161.13  2201.2
    9496.83  22573.3  7205.99  2211.69
    9503.08  22599.7  7252.74  2239.15
    9509.34  22604.1  7298.34  2258.56
    9515.61  22644.5  7345.83  2278.94
    9521.94  22622.8  7377.18  2310.27
    9528.29  22616.1  7404.41  2325.56
    9534.7  22693.4  7478.51  2363.81
    9541.18  22740.6  7541.47  2387.01
    9547.67  22756.8  7611.32  2417.18
    9554.16  22757  7674.03  2442.31
    9560.73  22771.1  7744.61  2472.39
    9567.3  22802.2  7821.07  2500.44
    9573.94  22800.3  7880.4  2528.44
    9580.6  22823.3  7938.59  2555.4
    9587.32  22832.3  8007.66  2575.32
    9594.11  22831.3  8081.6  2610.2
    9600.85  22822.2  8138.42  2635.03
    9607.72  22841.1  8199.1  2671.83
    9614.54  22872  8270.66  2699.58
    9621.49  22877.8  8318.09  2726.3
    9628.39  22877.6  8363.39  2748.97
    9635.41  22897.3  8437.56  2782.6
    9638.9  22900.7  8470.6  2800.4