Folder: XASDataLibrary/data/Cu (part 2)

File: CuO_tenorite_13K_01.xdi
# XDI/1.0
# Column.1: energy eV
# Column.2: i0
# Column.3: itrans
# Column.4: irefer
# Beamline.name: SSRL 4-3
# Detector.I0: N2 15cm
# Detector.I1: Ar 30cm
# Detector.I2: Ar 15cm
# Element.edge: K
# Element.symbol: Cu
# Mono.d_spacing: 1.92009
# Mono.name: Si(220)
# Mono.notes: unfocused, detuned 50%,higher piezo, at E=9200eV
# Sample.formula: CuO
# Sample.name: CuO  copper oxide   tenorite
# Sample.prep: powder, mixed with B(OH)3
# Sample.reference: Cu metal foil (?)
# Sample.temperature: 13K
# Scan.start_time: 1996-07-30 09:34:32
# ///
#    Note: mono d_spacing is nominal!
#     exafs to K13
#     398  E XMU XMUR I0
#-------------
#   energy   i0   itrans  irefer
    8760.02  46739.3  214243  15327.4
    8779.98  45826.3  214412  15593.4
    8799.98  44898.3  214962  15821.4
    8819.99  44000.3  215435  16064.4
    8840  43108.3  216053  16296.4
    8860.01  42182.3  216643  16524.4
    8880.01  41320.3  217196  16732.4
    8900.01  40448.3  218340  16979.4
    8920.02  39598.3  219255  17138.4
    8940.01  38714.3  219104  17301.4
    8960  37869.3  219007  17178.4
    8961.52  37748.3  219227  17149.4
    8963.04  37645.3  219059  17107.4
    8964.56  37574.3  218483  17040.4
    8966.08  37570.3  218732  17028.4
    8967.6  37615.3  218711  16998.4
    8969.07  37465.3  218014  16856.4
    8970.59  37425.3  218944  16738.4
    8972.12  37320.3  218370  16546.4
    8973.64  37238.3  217886  16306.4
    8975.16  37154.3  218215  15850.4
    8976.69  37112.3  217631  14899.4
    8978.16  37010.3  217174  12466.4
    8979.68  36947.3  216770  8514.41
    8981.21  36851.3  216213  6684.4
    8982.74  36836.3  193765  5760.4
    8984.26  36702.3  133366  4126.4
    8985.74  36638.3  106454  3256.4
    8987.27  36596.3  103208  2950.4
    8988.8  36544.3  86589.4  2406.4
    8990.32  36426.3  63386.4  1857.4
    8991.8  36358.3  45690.4  1536.4
    8993.33  36309.3  37408.4  1413.4
    8994.86  36238.3  33037.4  1381.4
    8996.34  36175.3  28860.4  1361.4
    8997.88  36091.3  27198.4  1352.4
    8999.41  35999.3  28675.4  1362.4
    9000.89  35969.3  31538.4  1363.4
    9002.42  35884.3  36009.4  1377.4
    9003.96  35853.3  39831.4  1415.4
    9005.44  35790.3  42572.4  1467.4
    9006.98  35738.3  44675.4  1509.4
    9008.46  35662.3  45019.4  1537.4
    9010  35566.3  44139.4  1542.4
    9011.07  35533.3  43618.4  1541.39
    9012.2  35467.3  43380.3  1535.36
    9013.38  35447.2  43548.1  1536.3
    9014.61  35396.2  43847.9  1528.23
    9015.84  35341.1  44233.6  1523.13
    9017.12  35300  44776.2  1512.01
    9018.45  35248.9  45822.8  1501.87
    9019.79  35220.7  47555.3  1501.71
    9021.18  35200.6  49872.7  1505.52
    9022.61  35153.4  52176  1511.32
    9024.1  35093.2  53933.3  1510.09
    9025.59  35058  55202.6  1514.84
    9027.14  34978.8  55907.7  1526.57
    9028.73  35007.6  55809.8  1548.28
    9030.38  35010.3  54659.9  1565.97
    9032.02  34969  52821.8  1573.63
    9033.72  34871.8  50623.7  1566.27
    9035.48  34846.4  48519.5  1551.89
    9037.28  34783.1  46361.3  1535.49
    9039.08  34217.8  43605  1508.07
    9040.94  34899.4  42583.6  1491.63
    9042.8  34838  41274.2  1478.16
    9044.76  34924.6  40480.7  1462.68
    9046.72  34846.2  39586.1  1456.17
    9048.74  34797.8  38858.4  1439.64
    9050.75  33910.4  37596.7  1376.09
    9052.88  33715.9  37688  1367.51
    9055  33508.4  38239.1  1365.92
    9057.12  33354.9  38960.2  1363.3
    9059.35  33281.4  39796.2  1361.66
    9061.58  33170.8  40514.2  1354
    9063.86  33143.3  41276.1  1357.32
    9066.19  33017.7  41725.9  1353.62
    9068.53  32946.1  42190.6  1345.89
    9070.92  32919.5  42705.3  1342.15
    9073.36  32894.9  43151  1346.38
    9075.81  32875.3  43452.5  1363.59
    9078.3  32843.6  43669  1378.78
    9080.85  32846.9  43833.4  1410.94
    9083.46  32840.2  43923.8  1426.09
    9086.07  32775.5  44093  1440.21
    9088.73  32813.8  44395.3  1451.32
    9091.39  32833  44498.4  1460.4
    9094.16  32817.3  44618.5  1472.46
    9096.93  32833.5  44923.5  1485.49
    9099.75  32782.7  45073.5  1496.51
    9102.58  32763.9  45310.3  1492.5
    9105.46  32812  45653.2  1484.47
    9108.39  32802.2  45762.9  1473.42
    9111.38  32783.3  45972.6  1464.35
    9114.37  32750.4  46297.2  1463.26
    9117.42  32802.5  46512.8  1470.15
    9120.47  32816.6  46453.2  1470.01
    9123.57  32812.6  45969.6  1449.85
    9126.73  32804.7  45133  1416.67
    9129.94  32842.7  44441.3  1392.47
    9133.15  32820.7  43970.5  1388.25
    9136.42  32777.7  43808.6  1392.01
    9139.75  32795.7  43961.7  1405.74
    9143.08  32728.6  44071.7  1425.45
    9146.46  32471.6  43920.7  1451.14
    9149.9  32912.5  44591.5  1486.81
    9153.34  32914.4  44906.3  1522.46
    9156.84  32701.3  45094.1  1555.09
    9160.4  32727.1  45773.8  1573.69
    9164  33105  47334.4  1575.27
    9167.62  32993.8  48401.9  1562.83
    9171.23  32964.6  49626.4  1552.37
    9174.96  32966.4  50586.8  1557.89
    9178.69  32950.2  50605.1  1559.39
    9182.42  32956  49864.4  1556.86
    9186.26  32925.7  48932.6  1550.32
    9190.11  32952.4  48557.8  1549.75
    9193.96  32938.1  48860.8  1560.16
    9197.86  32915.8  49488.8  1573.54
    9201.83  32895.5  50073.8  1570.91
    9205.85  32906.1  50738.6  1560.26
    9209.87  32916.8  51569.4  1562.58
    9213.95  32889.4  51924.2  1568.88
    9218.04  32905  51628.9  1576.16
    9222.18  32842.6  50843.5  1585.42
    9226.38  32863.2  50264  1602.66
    9230.64  32819.7  50428.5  1631.87
    9234.91  32860.2  51418.9  1666.06
    9239.17  32825.7  52329.2  1689.23
    9243.55  32818.2  52761.5  1696.38
    9247.88  32830.7  52678.7  1698.51
    9252.33  32781.2  52451.8  1696.62
    9256.77  32761.6  52436.9  1697.71
    9261.28  32699  52437.9  1696.77
    9265.79  32745.5  52794.8  1698.81
    9270.36  32733.8  53559.7  1709.83
    9274.99  32710.2  54648.5  1720.83
    9279.62  32685.6  55545.2  1736.81
    9284.32  32692.9  55819.9  1738.76
    9289.02  32670.2  55631.4  1742.69
    9293.78  32631.5  55573  1744.61
    9298.6  32599.8  55730.4  1747.5
    9303.42  32554.1  55932.8  1764.36
    9308.31  32517.3  56190.2  1777.21
    9313.25  32473.6  56754.4  1804.04
    9318.2  32435.8  57416.6  1828.84
    9323.16  32415  57809.8  1843.62
    9328.18  32367.2  57793.8  1851.38
    9333.25  32343.3  57789.8  1861.12
    9338.39  32301.5  57958.7  1878.84
    9343.54  32281.6  58564.6  1898.54
    9348.69  32234.7  59557.4  1914.21
    9353.9  32224.8  60705.1  1936.86
    9359.18  32193.9  61218.8  1952.49
    9364.46  32150.9  61001.4  1957.1
    9369.8  32149  60456.9  1951.69
    9375.21  32115  60002.3  1953.26
    9380.62  32110  59990.7  1952.8
    9386.04  32095  60236.1  1963.32
    9391.52  32106.9  60626.3  1975.82
    9397.06  32125.9  61294.5  1996.3
    9402.62  32071.8  62094.6  2018.76
    9408.23  32120.7  63065.7  2048.2
    9413.85  32118.6  63577.7  2076.61
    9419.54  32148.5  63857.6  2092
    9425.29  32233.4  64438.4  2119.37
    9431.04  32211.2  65233.2  2146.72
    9436.81  32299  66369.9  2180.05
    9442.64  32299.9  67006.6  2191.36
    9448.53  32299.6  67402.2  2205.64
    9454.43  32307.4  67810.7  2229.91
    9460.39  32271.2  68142.2  2216.15
    9466.36  32233.9  68380.5  2278.37
    9472.4  32232.6  68268.9  2275.56
    9478.45  32172.3  68051.1  2275.74
    9484.56  32100  68113.3  2288.89
    9490.68  32070.7  68757.4  2306.03
    9496.87  32001.4  69572.5  2330.14
    9503.06  31968  70204.4  2348.23
    9509.32  31917.6  70362.4  2359.3
    9515.59  31907.2  70597.2  2379.34
    9521.93  31778.8  71002  2405.37
    9528.33  31801.3  72163.7  2442.37
    9534.68  31869.9  73230.3  2482.35
    9541.16  31936.4  73809.9  2500.31
    9547.65  31860.9  73861.4  2518.25
    9554.15  31826.4  74104.9  2540.17
    9560.71  31697.9  74238.3  2547.06
    9567.29  31666.4  74676.6  2569.94
    9573.93  31555.8  74812.8  2585.79
    9580.64  31651.2  75270  2618.62
    9587.36  31552.6  75305.1  2635.43
    9594.09  31447  75764.1  2657.21
    9600.89  31382.4  76634.1  2674.98
    9607.7  31251.7  77142  2699.72
    9614.58  31126.1  77267.9  2733.44
    9621.47  30968.4  77354.7  2746.14
    9628.43  30834.7  77755.4  2766.82
    9635.4  30761  78461  2798.48
    9638.89  30682.6  78695.8  2798.8

File: CuS_covellite_13K_01.xdi
# XDI/1.0
# Column.1: energy eV
# Column.2: i0
# Column.3: itrans
# Column.4: irefer
# Beamline.name: SSRL 4-3
# Detector.I0: N2 15cm
# Detector.I1: Ar 30cm
# Detector.I2: Ar 15cm
# Element.edge: K
# Element.symbol: Cu
# Mono.d_spacing: 1.92009
# Mono.name: Si(220)
# Mono.notes: unfocused, detuned 50%,higher piezo, at E=9010eV
# Sample.formula: CuS
# Sample.name: CuS  copper sulfide  covellite
# Sample.prep: powder, mixed with B(OH)3
# Sample.reference: Cu metal foil
# Sample.temperature: 13K
# Scan.start_time: 1996-07-25 15:02:33
# ///
#    Note: mono d_spacing is nominal!
#     exafs to K13
#     432  E XMU XMUR I0
#-------------
#   energy   i0   itrans  irefer
    8759.98  29774.9  24187.2  14099.8
    8779.99  29061.9  24252.2  14242.8
    8800  28347.9  24314.2  14375.8
    8820  27641.9  24372.2  14500.8
    8840.01  26975.9  24415.2  14636.8
    8860.02  26253.9  24435.2  14730.8
    8879.98  25624.9  24475.2  14856.8
    8899.98  24963.9  24488.2  14979.8
    8919.98  24322.9  24486.2  15042.8
    8940.02  23687.9  24458.2  15113.8
    8960.02  23010.9  24445.2  15014.8
    8960.98  22988.9  24376.2  15014.8
    8961.99  22940.9  24379.2  14984.8
    8963  22894.9  24354.2  14975.8
    8964.02  22884.9  24318.2  14962.8
    8964.98  22828.9  24285.2  14924.8
    8965.99  22838.9  24326.2  14921.8
    8967.01  22883.9  24336.2  14925.8
    8968.02  22829.9  24317.2  14880.8
    8968.98  22809.9  24298.2  14859.8
    8970  22756.9  24285.2  14776.8
    8971.01  22713.9  24245.2  14714.8
    8971.98  22671.9  24264.2  14635.8
    8972.99  22582.9  24261.2  14498.8
    8974.01  22563.9  24199.2  14370.8
    8975.02  22529.9  24199.2  14159.8
    8975.99  22513.9  24181.2  13871.8
    8977  22484.9  24075.2  13277.8
    8978.02  22464.9  23880.2  11928.8
    8978.99  22402.9  23714.2  9607.8
    8980  22404.9  23359.2  7434.8
    8981.02  22352.9  22730.2  6203.8
    8981.99  22302.9  21545.2  5722.8
    8983  22239.9  20035.2  5417.8
    8984.02  22240.9  18738.2  5014.8
    8984.99  22168.9  17508.2  4505.8
    8986.01  22172.9  16626.2  4079.8
    8986.98  22123.9  16451.2  3814.8
    8987.99  22095.9  16609.2  3555.8
    8989.01  22047.9  16643.2  3234.8
    8989.98  21992.9  16474.2  2882.8
    8991  21964.9  16291.2  2562.8
    8992.02  21972.9  16147.2  2323.8
    8992.99  21922.9  15932.2  2179.8
    8994.01  21893.9  15687.2  2119.8
    8994.98  21888.9  15500.2  2139.8
    8996  21837.9  15363.2  2200.8
    8997.02  21832.9  15330.2  2277.8
    8997.99  21769.9  15251.2  2314.8
    8999.01  21750.9  15173.2  2309.8
    8999.98  21703.9  15092.2  2252.8
    9001.01  21681.9  15075.2  2155.8
    9001.98  21612.9  15045.2  2067.8
    9003  21617.9  15070.2  2028.8
    9004.02  21533.9  15006.2  2042.8
    9004.99  21515.9  14988.2  2106.8
    9006.02  21533.9  14989.2  2181.8
    9006.99  21458.9  14928.2  2230.8
    9008.01  21432.9  14900.2  2280.8
    9008.99  21399.9  14869.2  2323.8
    9010.01  21351.9  14828.2  2364.8
    9011.08  21299.9  14806.1  2389.76
    9012.21  21316.8  14861.7  2398.63
    9013.39  21289.6  14938  2393.43
    9014.57  21269.4  15069.1  2388.14
    9015.85  21269.1  15250  2370.77
    9017.14  21274.7  15410.6  2340.32
    9018.42  21266.2  15532.9  2296.78
    9019.8  21298.7  15680  2254.16
    9021.19  21281.2  15777.8  2206.46
    9022.63  21299.5  15881.4  2168.68
    9024.12  21304.8  15929.7  2128.81
    9025.61  21351  15939.7  2118.86
    9027.15  21387.2  15902.5  2138.83
    9028.74  21419.2  15841  2191.72
    9030.39  21448.3  15798.3  2261.53
    9032.04  21528.2  15827.3  2336.25
    9033.74  21575.1  15866.1  2400.89
    9035.49  21609.9  15908.6  2439.44
    9037.24  21635.7  15946.9  2451.92
    9039.05  21364.3  15746.9  2426.31
    9040.9  21964.9  16132.6  2447.62
    9042.81  22002.5  16083.1  2438.85
    9044.77  22188  16119.3  2454.99
    9046.74  22280.4  16075.3  2464.06
    9048.75  22360.7  16026  2440.04
    9050.77  22453  15996.4  2412.93
    9052.84  22536.2  16018.6  2415.75
    9054.96  22682.3  16154.6  2437.48
    9057.13  22824.4  16337.3  2443.13
    9059.36  22935.4  16505.7  2428.7
    9061.59  23059.3  16660.9  2422.18
    9063.87  23181.2  16806.8  2420.59
    9066.16  23321  17003.4  2424.91
    9068.54  23444.7  17243.8  2421.15
    9070.93  23617.3  17525  2424.3
    9073.32  23750.9  17756.9  2446.37
    9075.82  23875.5  17973.5  2507.37
    9078.32  24016.9  18181.9  2605.27
    9080.87  24206.3  18435  2709.1
    9083.42  24307.6  18616.9  2795.84
    9086.08  24489.9  18850.5  2886.5
    9088.69  24673.1  19058.8  2950.08
    9091.4  24791.2  19187.9  3006.58
    9094.12  24992.2  19324.7  3100.99
    9096.94  25172.2  19413.3  3182.32
    9099.71  25352.1  19490.6  3217.57
    9102.59  25531  19568.7  3202.74
    9105.47  25727.7  19681.5  3155.82
    9108.41  25910.4  19773.1  3107.82
    9111.34  26077.1  19856.4  3083.74
    9114.33  26302.7  20025.4  3087.58
    9117.38  26499.2  20241.2  3132.33
    9120.48  26706.6  20503.7  3159
    9123.58  26873  20722  3133.59
    9126.74  27067.3  20983  3059.1
    9129.95  27290.5  21266.7  3012.52
    9133.17  27484.7  21486.2  3033.87
    9136.44  27621.8  21636.5  3097.12
    9139.76  27850.8  21874.5  3175.3
    9143.09  27933.8  21986.2  3284.4
    9146.48  28029.7  22123.7  3437.4
    9149.92  28558.5  22653.9  3650.33
    9153.36  28801.2  22978.8  3866.18
    9156.85  28804.9  23091.5  4030.95
    9160.41  29096.6  23406  4126.63
    9163.97  29612.1  23882.2  4117.23
    9167.58  29734.6  24127.1  4024.75
    9171.25  29948  24513.8  3962.18
    9174.92  30118.4  24817.2  3955.53
    9178.65  30358.7  25078.4  4000.8
    9182.44  30527.9  25189.3  4043.99
    9186.22  30773  25339.9  4101.1
    9190.07  30983.1  25501.3  4147.12
    9193.97  31169.1  25808.4  4216.06
    9197.88  31405.1  25943.3  4279.92
    9201.84  31579.9  26121.9  4252.69
    9205.86  31834.7  26361.3  4192.39
    9209.89  32033.5  26585.4  4193.99
    9213.97  32188.2  26833.3  4251.52
    9218.05  32487.8  27265.9  4358.97
    9222.2  32666.3  27631.2  4503.33
    9226.4  32958.8  28040.3  4694.61
    9230.6  33132.2  28297.1  4875.81
    9234.86  33347.5  28588.7  5034.92
    9239.19  33542.8  28907  5147.96
    9243.51  33721  29204  5200.91
    9247.9  33983.1  29502.8  5243.78
    9252.34  34148.2  29702.4  5288.56
    9256.79  34380.2  29946.6  5331.26
    9261.29  34609.1  30219.7  5383.89
    9265.81  34814.9  30544.4  5402.43
    9270.38  35019.7  30932  5446.88
    9275.01  35254.5  31372.2  5502.25
    9279.64  35440.1  31700.2  5557.55
    9284.33  35622.7  31981  5607.76
    9289.03  35842.2  32255.5  5671.88
    9293.79  36042.7  32544.7  5725.92
    9298.61  36263.1  32831.7  5802.89
    9303.44  36419.4  33070.4  5898.76
    9308.32  36605.6  33334.8  6025.56
    9313.21  36803.8  33632  6170.27
    9318.16  36968.9  33889  6292.91
    9323.17  37173  34179.7  6390.46
    9328.19  37360.9  34487.1  6473.93
    9333.27  37535.8  34863.3  6594.31
    9338.35  37727.7  35268.2  6747.61
    9343.5  37904.5  35636.9  6897.83
    9348.7  38089.2  36002.3  6973.97
    9353.92  38261.8  36319.4  7041.02
    9359.19  38451.4  36640.3  7121
    9364.48  38955.9  37265  7256.89
    9369.82  39123.3  37563.4  7329.69
    9375.17  39310.7  37895.5  7405.42
    9380.58  39448  38181.3  7466.06
    9386.05  39629.2  38560  7538.61
    9391.53  39759.4  38865.3  7620.1
    9397.08  39988.5  39293.4  7734.49
    9402.63  40182.5  39667.2  7848.8
    9408.25  40295.4  39952.8  7989.03
    9413.87  40429.3  40264.2  8148.18
    9419.55  40582.2  40603.2  8290.25
    9425.25  40754.9  40956  8427.22
    9431  40890.6  41262.6  8523.13
    9436.82  41029.2  41582.9  8628.94
    9442.65  41220.8  41919.9  8740.68
    9448.49  41293.2  42179.7  8836.33
    9454.44  41380.7  42476.3  8961.9
    9460.35  41553  42816.5  9048.39
    9466.38  41668.3  43172.6  9255.8
    9472.36  41820.5  43525.3  9362.12
    9478.47  41927.7  43905.8  9474.36
    9484.52  42020.7  44225.1  9586.52
    9490.7  42153.7  44710.1  9693.6
    9496.83  42314.7  45123.8  9800.59
    9503.08  42421.6  45315.3  9892.5
    9509.34  42520.4  45648.5  9987.32
    9515.61  42593.1  45928.5  10119.1
    9521.94  42668.8  46182.2  10260.7
    9528.29  42646.4  46361.6  10410.3
    9534.7  42827.9  46767.8  10575.8
    9541.18  43014.4  47203.7  10749.2
    9547.67  43077.8  47516.4  10881.6
    9554.16  43189.1  47898.9  11035.8
    9560.73  43253.4  48239  11186
    9567.3  43339.6  48574.9  11333.1
    9573.94  43420.7  48909.6  11477.1
    9580.6  43482.7  49218  11631
    9587.32  43544.7  49576.1  11781.8
    9594.11  43601.7  49903  11937.6
    9600.85  43652.5  50166.6  12069.3
    9607.72  43759.3  50550  12220.9
    9614.54  43845  50924.1  12360.4
    9621.49  43926.7  51267  12517.8
    9628.39  44033.2  51724.6  12697.1
    9635.41  44105.8  52028.9  12837.4
    9638.9  44141.5  52209  12906