Folder: XASDataLibrary/data/Fe

Note: README
The XAS Data Library is designed to hold X-ray Absorption Spectra (EXAFS
and XANES) using an SQLite database, with array data encoded using JSON.
The principle goal for the library is as a proposed standard for storing
and exchanging XAS data. The implementation here is intended for initial
reference and comments. 

The idea is provide a format and set of tools for managing Libraries of
XAFS Data, and to be able to share these libraries between different
researchers and different analysis programs.  As the the base format of the
library will be created with SQLite, the SQL syntax and any third party
software that can use SQL and SQLite will be able to explore the data in
the format.  In addition, reference implementations of programmatically
interecting with the library will be provided.  

Ideally, a stand-alone GUI Data Browser and an on-line Library will be
built upon such a format.

See http://xafs.org/XasDataLibrary for additional information.


--Matt Newville  18-Feb-2011

File: fe2o3_rt.xdi
# XDI/1.0 GSE/1.0
# Column.1: energy eV
# Column.2: mutrans
# Column.3: i0
# Element.edge: K
# Element.symbol: Fe
# Scan.edge_energy: 7112.
# Mono.name: Si 111
# Mono.d_spacing: 3.13550
# Beamline.name: 13-BM-D
# Beamline.collimation: none
# Beamline.focusing: no
# Beamline.harmonic_rejection: detuned 50%
# Facility.name: APS
# Facility.energy: 7.00 GeV
# Facility.xray_source: APS bending magnet
# Scan.start_time: 2002-03-16T14:48:54
# Detector.I0: 15cm  N2
# Detector.I1: 15cm  N2
# Sample.name: Fe2O3
# Sample.prep: powder on tape, 5 layers
# ///
# room temperature
# measured at beamline 13-BM-D
# vert slits = 2mm (at 45m)
#----
#   energy       mutrans            i0
  6962       0.452695        304063.00
  6982       0.428866        305972.00
  7002       0.40586        305931.00
  7022       0.382274        306003.00
  7042       0.359829        305752.00
  7062       0.337169        305660.00
  7082       0.316471        305811.00
  7092.5       0.305634        305329.00
  7093.5       0.303904        305163.00
  7094.5       0.302477        305020.00
  7095.5       0.301436        304904.00
  7096.5       0.300646        305066.00
  7097.5       0.299904        304961.00
  7098.5       0.299011        305127.00
  7099.5       0.298016        304778.00
  7100.5       0.297265        304611.00
  7101.5       0.295413        304734.00
  7102.5       0.294942        304780.00
  7103.5       0.293888        304695.00
  7104.5       0.292805        304495.00
  7105.5       0.291376        304514.00
  7106.5       0.291262        304692.00
  7107.5       0.290609        304413.00
  7108.5       0.290319        304433.00
  7109.5       0.288749        304233.00
  7110.5       0.288668        304323.00
  7111.5       0.290438        304147.00
  7112.5       0.294945        304253.00
  7113.5       0.298012        304293.00
  7114.5       0.297233        304305.00
  7115.5       0.295707        304110.00
  7116.5       0.296051        303264.00
  7117.5       0.296141        304847.00
  7118.5       0.29779        303835.00
  7119.5       0.30345        303972.00
  7120.5       0.315325        303964.00
  7121.5       0.341593        303773.00
  7122.5       0.380218        304826.00
  7123.5       0.415562        305418.00
  7124.5       0.447635        305578.00
  7125.5       0.487507        305555.00
  7126.5       0.531964        305373.00
  7127.5       0.571946        305396.00
  7128.5       0.605416        305306.00
  7129.5       0.620231        305231.00
  7130.5       0.623153        305162.00
  7131.5       0.632184        305375.00
  7132.88       0.643902        304944.00
  7134.71       0.622981        305143.00
  7136.61       0.596353        305115.00
  7138.58       0.572886        305011.00
  7140.63       0.545217        305100.00
  7142.76       0.525836        304915.00
  7144.97       0.519419        304686.00
  7147.25       0.51735        304662.00
  7149.61       0.502508        304795.00
  7152.04       0.485709        304704.00
  7154.55       0.471282        304758.00
  7157.14       0.457678        304547.00
  7159.8       0.449523        304569.00
  7162.54       0.447821        304602.00
  7165.35       0.449973        304438.00
  7168.25       0.454756        304785.00
  7171.21       0.465457        303077.00
  7174.26       0.482301        304563.00
  7177.38       0.490218        304285.00
  7180.57       0.490083        304190.00
  7183.85       0.485761        304086.00
  7187.2       0.47918        304024.00
  7190.62       0.473844        305363.00
  7194.13       0.465176        305949.00
  7197.7       0.456919        306072.00
  7201.36       0.447554        305966.00
  7205.09       0.438101        305815.00
  7208.9       0.4322        305812.00
  7212.78       0.427282        305785.00
  7216.74       0.424106        305824.00
  7220.78       0.420832        305842.00
  7224.89       0.418331        305619.00
  7229.08       0.412556        305604.00
  7233.34       0.406853        305622.00
  7237.69       0.403497        305402.00
  7242.1       0.398464        305516.00
  7246.6       0.390677        305393.00
  7251.17       0.384397        305330.00
  7255.81       0.379417        305434.00
  7260.54       0.378251        305271.00
  7265.34       0.375221        304848.00
  7270.21       0.373426        305414.00
  7275.16       0.368134        305094.00
  7280.19       0.364448        305077.00
  7285.3       0.35947        304873.00
  7290.48       0.352838        304991.00
  7295.73       0.345821        304834.00
  7301.07       0.33718        304716.00
  7306.48       0.327712        305485.00
  7311.96       0.318681        304657.00
  7317.53       0.309361        304643.00
  7323.16       0.302673        304621.00
  7328.88       0.299319        304869.00
  7334.67       0.297256        306276.00
  7340.54       0.294978        306432.00
  7346.48       0.289818        306266.00
  7352.5       0.282647        306252.00
  7358.6       0.274823        306162.00
  7364.77       0.265621        306111.00
  7371.02       0.257744        306151.00
  7377.35       0.250469        306085.00
  7383.75       0.243831        306191.00
  7390.23       0.236514        305978.00
  7396.78       0.229781        306084.00
  7403.41       0.226322        305781.00
  7410.12       0.221859        305634.00
  7416.9       0.215182        306612.00
  7423.76       0.207573        305398.00
  7430.7       0.198994        305659.00
  7437.71       0.189253        305491.00
  7444.8       0.180784        305395.00
  7451.96       0.172262        305404.00
  7459.2       0.166236        305436.00
  7466.52       0.159823        305382.00
  7473.91       0.15345        305312.00
  7481.39       0.147143        305158.00
  7488.93       0.139444        304994.00
  7496.55       0.132052        305063.00
  7504.25       0.124002        304218.00
  7512.03       0.11668        305190.00
  7519.88       0.108542        305095.00
  7527.81       0.100494        305039.00
  7535.81       0.0932533    305070.00
  7543.89       0.0861654    304934.00
  7552.05       0.0784962    304772.00
  7560.28       0.0701037    305033.00
  7568.59       0.0623945    304600.00
  7576.98       0.0548954    304490.00
  7585.44       0.0464308    304756.00
  7593.98       0.0386613    304603.00
  7602.59       0.0307897    304467.00
  7611.28       0.0230901    304510.00
  7620.05       0.0152898    304518.00
  7628.89       0.00787611    304595.00
  7637.81      -0.000514117    304133.00
  7646.81      -0.00961673    304291.00
  7655.88      -0.0181069    304097.00
  7665.03      -0.0268015    305641.00
  7674.26      -0.0341576    304032.00
  7683.56      -0.0412652    304151.00
  7692.94      -0.0497338    303864.00
  7702.39      -0.0571858    303868.00
  7711.92      -0.0658025    303862.00
  7721.52      -0.0740791    303847.00
  7731.21      -0.0821212    303601.00
  7740.97      -0.0908718    307241.00
  7750.8      -0.0990289    303525.00
  7760.72      -0.107659        303652.00
  7770.7      -0.116561        303564.00
  7780.77      -0.124818        303863.00
  7790.91      -0.132572        303394.00
  7801.12      -0.141364        303399.00
  7811.42      -0.15013        304068.00
  7821.79      -0.158104        305271.00
  7832.23      -0.167274        305778.00
  7842.76      -0.175175        305223.00
  7853.35      -0.183812        305185.00
  7864.03      -0.192359        305086.00
  7874.78      -0.200444        305131.00
  7885.61      -0.208779        304982.00
  7896.51      -0.217105        304866.00
  7907.49      -0.225743        304925.00
  7918.55      -0.234972        304593.00
  7929.68      -0.24381        304758.00
  7940.89      -0.252009        304386.00
  7952.18      -0.260476        304668.00
  7963.54      -0.268625        304556.00
  7969.25      -0.273007        304796.00

File: Fe2O3_rt_01.xdi
# XDI/1.0
# Column.1: energy eV
# Column.2: i0
# Column.3: itrans
# Beamline.name: APS 20-BM-B
# Beamline.notes: vert slits = unknown
# Detector.I0: N2 15cm
# Detector.I1: N2 15cm
# Element.edge: K
# Element.symbol: Fe
# Mono.d_spacing: 3.13550
# Mono.name: Si(111)
# Mono.notes: unfocussed, detuned 50%
# Sample.formula: Fe2O3
# Sample.name: Fe2O3 powder  Room Temperature
# Sample.prep: powder on tape, 16 layers
# Sample.reference: none
# Sample.temperature: Room Temperature
# Scan.start_time: 2001-08-10 11:45:00
# ///
#    Note: mono d_spacing is nominal!
#     data from NXS school, 2001
#     412 E XMU I0
#-------------
#   energy   i0   itrans
    6911.83  272002  121091
    6921.76  268827  120841
    6931.79  255214  115822
    6941.83  276310  126659
    6951.96  274820  127226
    6961.99  274313  128218
    6971.94  274012  129304
    6982.01  273774  130465
    6991.93  273771  131661
    7001.84  273682  132819
    7011.84  273571  134044
    7021.86  273493  135246
    7031.95  273200  136352
    7041.85  273100  137520
    7051.77  273038  138725
    7061.82  272878  139874
    7071.77  272679  140929
    7081.69  272240  141831
    7091.54  271377  142369
    7101.58  233593  123222
    7102.28  250354  132004
    7103.19  271114  142986
    7104  274140  144616
    7104.61  274276  144660
    7105.51  274103  144584
    7106.23  273949  144464
    7107.05  273839  144340
    7107.94  273727  144155
    7108.6  273590  143966
    7109.49  273456  143539
    7110.27  273327  142994
    7110.99  273230  142011
    7111.91  273116  138426
    7112.66  272990  132720
    7113.36  272875  128830
    7114.24  272838  131978
    7114.89  272826  133719
    7115.79  272740  133378
    7116.65  272686  132994
    7117.24  272587  132675
    7118.21  272490  131280
    7118.95  272395  128162
    7119.73  272328  122347
    7120.63  272228  112392
    7121.3  272163  102025
    7122.07  272151  88665.2
    7122.91  272063  79094.2
    7123.56  272008  72985.2
    7124.5  271940  64585.2
    7125.33  271934  56154.2
    7125.95  271921  47527.2
    7126.94  271778  39710.2
    7127.62  271428  36413.2
    7128.47  271435  33550.2
    7129.33  271502  30479.2
    7129.96  271442  27470.2
    7130.81  271290  23661.2
    7131.59  271227  21640.2
    7132.29  271246  21253.2
    7133.23  271231  22542.2
    7134  271186  24288.2
    7134.74  271245  26477.2
    7135.66  271199  28163.2
    7136.29  271165  28963.2
    7137.2  271145  29622.2
    7138.03  271145  30131.2
    7138.65  271084  30653.2
    7139.54  271041  31583.2
    7140.27  271066  32557.2
    7141.05  270977  33851.2
    7141.95  271050  35154.2
    7142.67  271034  35964.2
    7143.48  270941  36479.2
    7144.35  270977  36362.2
    7144.99  270901  35987.2
    7145.91  270947  35579.2
    7147.12  272298  35963
    7149.47  274844  39863.4
    7151.98  277400  44449.7
    7154.55  279860  47425
    7157.09  282313  50292.2
    7159.7  284619  52857.2
    7162.41  286944  53872.8
    7165.27  289122  53459
    7168.16  291260  52294.8
    7171.08  293436  50252
    7174.19  295500  47528.7
    7177.24  297604  46178.7
    7180.57  299464  45058
    7183.7  300498  44304.5
    7187.25  302879  44625.3
    7190.61  305658  45363.1
    7194.19  307644  46333.1
    7197.89  309593  47608.2
    7201.38  311358  48938.3
    7205.39  313188  50515.3
    7209.17  314883  51884.4
    7213.09  316728  52784.4
    7217.07  318603  53182.2
    7221.23  320296  53337
    7225.48  322092  53508.6
    7229.72  323824  54150
    7234.1  325615  55392.2
    7238.5  327500  56969.1
    7243.04  324367  57873.8
    7247.54  326912  59323.3
    7252.27  330961  60021.4
    7256.91  332519  59579.2
    7261.68  334055  58782.7
    7266.41  335600  58198.9
    7271.38  337018  58167.6
    7276.52  337915  58469
    7281.53  339358  59251
    7286.7  339970  60304.6
    7291.92  339494  61525.7
    7297.38  343559  63596.4
    7302.59  345274  64920.6
    7308.13  346796  65989.4
    7313.68  348089  66757.7
    7319.15  348868  67000.4
    7325.02  350435  67210.7
    7330.56  350882  67391.5
    7336.43  353117  68427.7
    7342.41  354248  69567.4
    7348.32  355110  70811.5
    7354.42  356814  72196.1
    7360.53  357995  73206.1
    7366.76  359139  73912.5
    7373.05  357296  73805.4
    7379.53  361153  75059.7
    7385.74  350053  73236.3
    7392.32  363935  76497.3
    7398.98  364881  77049.7
    7405.61  366149  77957.5
    7412.34  367158  79056.7
    7419.06  368127  80287.2
    7425.97  369291  81581.1
    7432.89  370326  82743.3
    7439.82  369000  83255.9
    7446.98  371376  84431.8
    7454.28  372590  85284
    7461.48  373805  86271.5
    7468.85  374908  87369.4
    7476.12  375838  88437.5
    7483.7  376846  89498
    7491.18  377713  90532.8
    7498.62  378522  91535.9
    7506.38  379198  92571.2
    7514.14  379972  93639.9
    7522  380835  94715.8
    7529.72  381793  95716
    7537.76  382521  96696.5
    7545.82  382085  97409.2
    7553.64  385317  99199.2
    7562  385856  100402
    7570.27  386497  101511
    7578.52  387189  102651
    7586.95  387968  103837
    7595.26  388722  105027
    7603.89  389523  106237
    7612.35  390159  107355
    7621.12  390987  108602
    7629.83  389927  109337
    7638.68  391487  110878
    7647.78  393087  112429
    7656.82  393746  113751
    7666.03  394289  115014
    7675.4  395171  116368
    7684.75  395844  117628
    7694.15  396509  118946
    7703.77  396909  120186
    7713.41  397575  121586
    7723.1  398134  122997
    7732.72  398734  124366
    7742.61  399353  125837
    7752.58  399845  127248
    7762.6  400486  128712
    7772.67  400982  130176
    7782.76  401672  131666
    7792.88  402001  133060
    7803.02  401864  134307
    7813.3  402831  135948
    7823.69  403360  137490
    7834.11  403795  138988
    7844.68  404047  140485
    7855.26  404478  142040
    7866  405062  143649
    7876.82  406337  145529
    7887.65  406102  146875
    7898.54  406264  148370
    7909.44  406609  149900
    7920.42  407015  151512
    7931.46  407437  153144
    7942.55  407632  154691
    7953.84  403585  154669
    7965.29  407925  157878
    7976.72  400704  156620
    7988.2  409027  161410
    7999.59  409230  163066
    8011.3  409372  164743
    8023.12  409473  166404
    8034.77  410006  168257
    8046.47  410089  169925
    8058.45  410359  171729
    8070.34  408779  172696
    8082.23  410861  175312
    8084.23  410812  175577

File: fe3c_rt.xdi
# XDI/1.0 GSE/1.0
# Column.1: energy eV
# Column.2: mutrans
# Column.3: i0
# Element.edge: K
# Element.symbol: Fe
# Scan.edge_energy: 7112.
# Mono.name: Si 111
# Mono.d_spacing: 3.13550
# Beamline.name: 13-BM-D
# Beamline.collimation: none
# Beamline.focusing: no
# Beamline.harmonic_rejection: detuned 50%
# Facility.name: APS
# Facility.energy: 7.00 GeV
# Facility.xray_source: APS bending magnet
# Scan.start_time: 2002-03-16T18:27:34
# Detector.I0: 15cm  N2
# Detector.I1: 15cm  N2
# Sample.name: Fe3C
# Sample.prep: powder on tape, 6 layers
# ///
# room temperature
# measured at beamline 13-BM-D
# vert slits = 2mm (at 45m)
#----
#   energy       mutrans            i0
  6962      -0.0695303    303823.80
  6982      -0.0969281    305927.80
  7002      -0.123078        305831.80
  7022      -0.148706        305783.80
  7042      -0.173696        306033.80
  7062      -0.198392        305626.80
  7082      -0.220285        305689.80
  7092.5      -0.228738        305282.80
  7093.5      -0.229658        305134.80
  7094.5      -0.229704        305155.80
  7095.5      -0.229977        305090.80
  7096.5      -0.230776        305006.80
  7097.5      -0.231029        305039.80
  7098.5      -0.230734        304953.80
  7099.5      -0.230644        304858.80
  7100.5      -0.229931        304834.80
  7101.5      -0.229567        304770.80
  7102.5      -0.228644        304758.80
  7103.5      -0.226803        304649.80
  7104.5      -0.224717        304620.80
  7105.5      -0.221233        304573.80
  7106.5      -0.216936        304455.80
  7107.5      -0.208544        304570.80
  7108.5      -0.194911        304432.80
  7109.5      -0.163037        304363.80
  7110.5      -0.0601169    304365.80
  7111.5       0.139997        305032.80
  7112.5       0.253594        306296.80
  7113.5       0.306079        306321.80
  7114.5       0.372684        306258.80
  7115.5       0.458619        306195.80
  7116.5       0.530848        305559.80
  7117.5       0.61521        306632.80
  7118.5       0.75156        306219.80
  7119.5       0.916178        305986.80
  7120.5        1.08963        305908.80
  7121.5        1.28677        305899.80
  7122.5        1.49772        305905.80
  7123.5        1.69562        305862.80
  7124.5        1.86047        305743.80
  7125.5        1.99061        305744.80
  7126.5        2.10198        305679.80
  7127.5        2.20707        305660.80
  7128.5        2.29006        305564.80
  7129.5        2.33695        305536.80
  7130.5        2.3379        305423.80
  7131.5        2.3095        305450.80
  7132.88        2.24129        305532.80
  7134.71        2.13935        305452.80
  7136.61        2.09143        305314.80
  7138.58        2.08716        305319.80
  7140.63        2.09232        305278.80
  7142.76        2.08992        305208.80
  7144.97        2.08045        305150.80
  7147.25        2.08087        305152.80
  7149.61        2.08878        305014.80
  7152.04        2.1071        305003.80
  7154.55        2.11964        304998.80
  7157.14        2.11512        304940.80
  7159.8        2.08824        304875.80
  7162.54        2.03017        304794.80
  7165.35        1.96796        304729.80
  7168.25        1.91849        304650.80
  7171.21        1.88728        303615.80
  7174.26        1.88221        304686.80
  7177.38        1.89548        304456.80
  7180.57        1.93148        304487.80
  7183.85        1.98632        304493.80
  7187.2        2.0296        304452.80
  7190.62        2.06247        304290.80
  7194.13        2.08493        304334.80
  7197.7        2.09683        304279.80
  7201.36        2.10097        304243.80
  7205.09        2.0893        304154.80
  7208.9        2.05186        304106.80
  7212.78        2.004        304049.80
  7216.74        1.95627        303947.80
  7220.78        1.90559        303866.80
  7224.89        1.86145        303963.80
  7229.08        1.8248        303835.80
  7233.34        1.79837        303762.80
  7237.69        1.78878        303775.80
  7242.1        1.80674        303725.80
  7246.6        1.8536        303597.80
  7251.17        1.90638        303547.80
  7255.81        1.94469        303558.80
  7260.54        1.96418        303444.80
  7265.34        1.9545        303261.80
  7270.21        1.91776        304191.80
  7275.16        1.86866        305517.80
  7280.19        1.81777        305487.80
  7285.3        1.78339        305446.80
  7290.48        1.76745        305363.80
  7295.73        1.75339        305247.80
  7301.07        1.74119        305162.80
  7306.48        1.73255        305947.80
  7311.96        1.72445        305110.80
  7317.53        1.71724        305112.80
  7323.16        1.7184        305048.80
  7328.88        1.72388        304936.80
  7334.67        1.73221        304955.80
  7340.54        1.73049        304859.80
  7346.48        1.71319        304835.80
  7352.5        1.68534        304762.80
  7358.6        1.6529        304790.80
  7364.77        1.62106        304722.80
  7371.02        1.60018        304654.80
  7377.35        1.58919        304610.80
  7383.75        1.57884        304601.80
  7390.23        1.57197        304424.80
  7396.78        1.56551        304420.80
  7403.41        1.55615        304457.80
  7410.12        1.54747        304274.80
  7416.9        1.54165        304935.80
  7423.76        1.5269        303941.80
  7430.7        1.51236        304239.80
  7437.71        1.49816        304106.80
  7444.8        1.48079        304044.80
  7451.96        1.46017        304380.80
  7459.2        1.44346        306017.80
  7466.52        1.42794        305961.80
  7473.91        1.41258        305861.80
  7481.39        1.397        305814.80
  7488.93        1.38427        305858.80
  7496.55        1.37191        305723.80
  7504.25        1.36142        304977.80
  7512.03        1.35203        305779.80
  7519.88        1.33949        305711.80
  7527.81        1.32333        305554.80
  7535.81        1.30726        305488.80
  7543.89        1.29436        305562.80
  7552.05        1.2805        305337.80
  7560.28        1.26539        305330.80
  7568.59        1.24748        305366.80
  7576.98        1.23113        305241.80
  7585.44        1.21667        305207.80
  7593.98        1.20246        305417.80
  7602.59        1.18841        305180.80
  7611.28        1.17506        305213.80
  7620.05        1.16095        304974.80
  7628.89        1.1461        304916.80
  7637.81        1.13073        304834.80
  7646.81        1.11558        304799.80
  7655.88        1.10282        304711.80
  7665.03        1.08762        306255.80
  7674.26        1.07433        304556.80
  7683.56        1.06021        304634.80
  7692.94        1.04648        304539.80
  7702.39        1.02994        304800.80
  7711.92        1.01355        306414.80
  7721.52       0.998603        306401.80
  7731.21       0.984505        306327.80
  7740.97       0.969503        310219.80
  7750.8       0.954504        306198.80
  7760.72       0.938223        306239.80
  7770.7       0.92474        306227.80
  7780.77       0.909324        306391.80
  7790.91       0.894668        306041.80
  7801.12       0.880287        305923.80
  7811.42       0.865749        305957.80
  7821.79       0.850668        305896.80
  7832.23       0.834949        306320.80
  7842.76       0.820336        305776.80
  7853.35       0.805687        305734.80
  7864.03       0.789869        305675.80
  7874.78       0.775014        305676.80
  7885.61       0.759485        305612.80
  7896.51       0.744513        305475.80
  7907.49       0.728367        305453.80
  7918.55       0.712981        305404.80
  7929.68       0.699383        305439.80
  7940.89       0.684334        304923.80
  7952.18       0.670416        305291.80
  7963.54       0.655597        305144.80
  7969.25       0.648335        305495.80