Folder: XASDataLibrary/data/Fe (part 2)

File: Fe3C_rt_01.xdi
# XDI/1.0 GSE/1.0
# Column.1: energy eV
# Column.2: i0
# Column.3: itrans
# Beamline.name: APS 13-BM-D
# Beamline.notes: vert slits = 2mm (at 45m)
# Beamline.collimation: none
# Beamline.focusing: no
# Beamline.harmonic_rejection: detuned 50%
# Facility.name: APS
# Facility.energy: 7.00 GeV
# Facility.xray_source: APS bending magnet
# Detector.I0: N2 15cm
# Detector.I1: N2 15cm
# Element.edge: K
# Element.symbol: Fe
# Mono.d_spacing: 3.13550
# Mono.name: Si(111)
# Mono.notes: unfocussed, detuned 50%
# Sample.formula: Fe3C
# Sample.name: Fe3C
# Sample.prep: powder on tape, 6 layers
# Sample.reference: none
# Sample.temperature: Room Temperature
# Scan.edge_energy: 7112.
# Scan.start_time: 2002-03-16 18:27:34
# ///
#    Note: mono d_spacing is nominal!
#     Energy drive values recorded (encoder used, not recorded)
#     348 E XMU I0
#-------------
#   energy   i0   itrans
    6962  303824  325700
    6982  305928  337065
    7002  305832  345887
    7022  305784  354811
    7042  306034  364086
    7062  305627  372694
    7082  305690  381021
    7092.5  305283  383745
    7093.5  305135  383911
    7094.5  305156  383955
    7095.5  305091  383978
    7096.5  305007  384180
    7097.5  305040  384319
    7098.5  304954  384096
    7099.5  304859  383942
    7100.5  304835  383638
    7101.5  304771  383418
    7102.5  304759  383050
    7103.5  304650  382208
    7104.5  304621  381376
    7105.5  304574  379990
    7106.5  304456  378214
    7107.5  304571  375195
    7108.5  304433  369947
    7109.5  304364  358261
    7110.5  304366  323225
    7111.5  305033  265184
    7112.5  306297  237689
    7113.5  306322  225554
    7114.5  306259  210977
    7115.5  306196  193564
    7116.5  305560  179702
    7117.5  306633  165743
    7118.5  306220  144423
    7119.5  305987  122409
    7120.5  305909  102890
    7121.5  305900  84477.5
    7122.5  305906  68412.5
    7123.5  305863  56121.5
    7124.5  305744  47573.5
    7125.5  305745  41768.5
    7126.5  305680  37358.5
    7127.5  305661  33629.5
    7128.5  305565  30941.5
    7129.5  305537  29521.5
    7130.5  305424  29482.5
    7131.5  305451  30334.5
    7132.88  305533  32484.5
    7134.71  305453  35961.5
    7136.61  305315  37709.5
    7138.58  305320  37871.5
    7140.63  305279  37671.5
    7142.76  305209  37753.5
    7144.97  305151  38105.5
    7147.25  305153  38089.5
    7149.61  305015  37772.5
    7152.04  305004  37085.5
    7154.55  304999  36622.5
    7157.14  304941  36781.5
    7159.8  304876  37775.5
    7162.54  304795  40023.5
    7165.35  304730  42583.5
    7168.25  304651  44731.5
    7171.21  303616  45992.5
    7174.26  304687  46389.5
    7177.38  304457  45743.5
    7180.57  304488  44130.5
    7183.85  304494  41776.5
    7187.2  304453  40001.5
    7190.62  304291  38687.5
    7194.13  304335  37833.5
    7197.7  304280  37379.5
    7201.36  304244  37220.5
    7205.09  304155  37646.5
    7208.9  304107  39076.5
    7212.78  304050  40984.5
    7216.74  303948  42973.5
    7220.78  303867  45195.5
    7224.89  303964  47250.5
    7229.08  303836  48993.5
    7233.34  303763  50293.5
    7237.69  303776  50780.5
    7242.1  303726  49868.5
    7246.6  303598  47565.5
    7251.17  303548  45112.5
    7255.81  303559  43418.5
    7260.54  303445  42564.5
    7265.34  303262  42952.5
    7270.21  304192  44696.5
    7275.16  305518  47150.5
    7280.19  305488  49607.5
    7285.3  305447  51335.5
    7290.48  305364  52146.5
    7295.73  305248  52864.5
    7301.07  305163  53498.5
    7306.48  305948  54101.5
    7311.96  305111  54392.5
    7317.53  305113  54786.5
    7323.16  305049  54711.5
    7328.88  304937  54392.5
    7334.67  304956  53944.5
    7340.54  304860  54020.5
    7346.48  304836  54958.5
    7352.5  304763  56497.5
    7358.6  304791  58365.5
    7364.77  304723  60240.5
    7371.02  304655  61497.5
    7377.35  304611  62168.5
    7383.75  304602  62813.5
    7390.23  304425  63209.5
    7396.78  304421  63618.5
    7403.41  304458  64224.5
    7410.12  304275  64745.5
    7416.9  304936  65264.5
    7423.76  303942  66018.5
    7430.7  304240  67051.5
    7437.71  304107  67980.5
    7444.8  304045  69157.5
    7451.96  304381  70676.5
    7459.2  306018  72253.5
    7466.52  305962  73370.5
    7473.91  305862  74481.5
    7481.39  305815  75639.5
    7488.93  305859  76619.5
    7496.55  305724  77538.5
    7504.25  304978  78164.5
    7512.03  305780  79109.5
    7519.88  305712  80090.5
    7527.81  305555  81353.5
    7535.81  305489  82653.5
    7543.89  305563  83746.5
    7552.05  305338  84852.5
    7560.28  305331  86142.5
    7568.59  305367  87709.5
    7576.98  305242  89119.5
    7585.44  305208  90407.5
    7593.98  305418  91764.5
    7602.59  305181  92990.5
    7611.28  305214  94250.5
    7620.05  304975  95514.5
    7628.89  304917  96925.5
    7637.81  304835  98399.5
    7646.81  304800  99890.5
    7655.88  304712  101145
    7665.03  306256  103214
    7674.26  304557  104014
    7683.56  304635  105521
    7692.94  304540  106946
    7702.39  304801  108823
    7711.92  306415  111207
    7721.52  306402  112877
    7731.21  306328  114451
    7740.97  310220  117657
    7750.8  306199  117888
    7760.72  306240  119839
    7770.7  306228  121461
    7780.77  306392  123413
    7790.91  306042  125093
    7801.12  305924  126855
    7811.42  305958  128727
    7821.79  305897  130658
    7832.23  306321  132911
    7842.76  305777  134629
    7853.35  305735  136597
    7864.03  305676  138747
    7874.78  305677  140825
    7885.61  305613  142999
    7896.51  305476  145090
    7907.49  305454  147442
    7918.55  305405  149703
    7929.68  305440  151771
    7940.89  304924  153812
    7952.18  305292  156156
    7963.54  305145  158411
    7969.25  305496  159748

File: Fe3O4_rt_01.xdi
# XDI/1.0
# Column.1: energy eV
# Column.2: i0
# Column.3: itrans
# Beamline.name: APS 13-BM-D
# Beamline.notes: vert slits = 2mm (at 45m)
# Detector.I0: N2 15cm
# Detector.I1: N2 15cm
# Element.edge: K
# Element.symbol: Fe
# Mono.d_spacing: 3.13550
# Mono.name: Si(111)
# Mono.notes: unfocussed, detuned 50%
# Sample.formula: Fe3O4
# Sample.name: Fe3O4 powder  Room Temperature
# Sample.prep: powder on tape, 6 layers
# Sample.reference: none
# Sample.temperature: Room Temperature
# Scan.start_time: 2002-03-16 19:08:35
# ///
#    Note: mono d_spacing is nominal!
#     Energy drive values recorded (encoder used, not recorded)
#     348 E XMU I0
#-------------
#   energy   i0   itrans
    6962  302594  269023
    6982  304796  278856
    7002  304773  286565
    7022  304678  294382
    7042  304786  302441
    7062  304558  310200
    7082  304446  317710
    7092.5  304061  320466
    7093.5  303949  320543
    7094.5  303967  320793
    7095.5  303998  320745
    7096.5  305663  322893
    7097.5  305912  323271
    7098.5  305903  323266
    7099.5  305839  323497
    7100.5  305728  323496
    7101.5  305699  323523
    7102.5  305592  323351
    7103.5  305555  323068
    7104.5  305521  322841
    7105.5  305432  322387
    7106.5  305377  321877
    7107.5  305345  321090
    7108.5  305269  319967
    7109.5  305244  318011
    7110.5  305158  313387
    7111.5  305146  302514
    7112.5  305113  278087
    7113.5  305101  264903
    7114.5  305075  274299
    7115.5  304941  277703
    7116.5  304386  272101
    7117.5  305427  257549
    7118.5  304992  230509
    7119.5  304851  192510
    7120.5  304810  151155
    7121.5  304714  118432
    7122.5  304710  92127.5
    7123.5  304598  68464.5
    7124.5  304576  51490.5
    7125.5  304529  40931.5
    7126.5  304491  33904.5
    7127.5  305361  26839.5
    7128.5  306033  20559.5
    7129.5  306055  16971.5
    7130.5  305910  16373.5
    7131.5  305995  17358.5
    7132.88  305940  19786.5
    7134.71  305934  24147.5
    7136.61  305824  26617.5
    7138.58  305791  28991.5
    7140.63  305764  31922.5
    7142.76  305679  32516.5
    7144.97  305611  32186.5
    7147.25  305588  34637.5
    7149.61  305560  40270.5
    7152.04  305539  44304.5
    7154.55  305422  47228.5
    7157.14  305397  50358.5
    7159.8  305352  51796.5
    7162.54  305312  50997.5
    7165.35  305193  49320.5
    7168.25  305141  46571.5
    7171.21  304138  42884.5
    7174.26  305131  39590.5
    7177.38  305073  37123.5
    7180.57  305003  34855.5
    7183.85  304926  34434.5
    7187.2  304864  35177.5
    7190.62  304891  36209.5
    7194.13  304859  37941.5
    7197.7  304711  40050.5
    7201.36  304701  42391.5
    7205.09  305324  44620.5
    7208.9  306449  45764.5
    7212.78  306536  45646.5
    7216.74  306436  44695.5
    7220.78  306402  43361.5
    7224.89  306394  42387.5
    7229.08  306354  42630.5
    7233.34  306226  43874.5
    7237.69  306179  45845.5
    7242.1  306131  48620.5
    7246.6  306147  50556.5
    7251.17  306078  50271.5
    7255.81  306004  48548.5
    7260.54  305968  46564.5
    7265.34  305764  45165.5
    7270.21  306256  45062.5
    7275.16  305842  45373.5
    7280.19  305761  46107.5
    7285.3  305711  47485.5
    7290.48  305653  49692.5
    7295.73  305616  51326.5
    7301.07  305407  52578.5
    7306.48  306534  54064.5
    7311.96  305396  54637.5
    7317.53  305448  54333.5
    7323.16  305362  53488.5
    7328.88  305253  53024.5
    7334.67  305245  53630.5
    7340.54  305263  54707.5
    7346.48  305190  56254.5
    7352.5  305103  57540.5
    7358.6  304999  58456.5
    7364.77  304987  58978.5
    7371.02  304948  59133.5
    7377.35  304847  59891.5
    7383.75  304814  60780.5
    7390.23  304830  61348.5
    7396.78  304762  61643.5
    7403.41  304692  62382.5
    7410.12  304694  63463.5
    7416.9  305273  64722.5
    7423.76  304217  65682.5
    7430.7  304540  66856.5
    7437.71  304511  67962.5
    7444.8  304360  68540.5
    7451.96  304367  68950.5
    7459.2  304368  69768.5
    7466.52  304255  71101.5
    7473.91  304195  72333.5
    7481.39  304164  73056.5
    7488.93  304145  74112.5
    7496.55  304051  75109.5
    7504.25  303186  75908.5
    7512.03  303992  77076.5
    7519.88  303888  77998.5
    7527.81  303919  79071.5
    7535.81  303818  80228.5
    7543.89  303805  81431.5
    7552.05  303743  82768.5
    7560.28  303702  84172.5
    7568.59  303659  85273.5
    7576.98  305505  86870.5
    7585.44  305608  88115.5
    7593.98  305549  89184.5
    7602.59  305497  90157.5
    7611.28  305489  91452.5
    7620.05  305237  92868.5
    7628.89  305221  94324.5
    7637.81  305157  95861.5
    7646.81  305077  97443.5
    7655.88  305007  98911.5
    7665.03  306859  100877
    7674.26  304923  101607
    7683.56  305043  102902
    7692.94  304815  104231
    7702.39  304768  105593
    7711.92  304781  107231
    7721.52  304725  108827
    7731.21  304585  110578
    7740.97  308194  113691
    7750.8  304515  113921
    7760.72  304473  115512
    7770.7  304405  117323
    7780.77  304717  119041
    7790.91  304310  120565
    7801.12  304179  122368
    7811.42  304345  124296
    7821.79  304320  126090
    7832.23  304669  128255
    7842.76  304041  130084
    7853.35  304061  132065
    7864.03  305715  134793
    7874.78  306131  136955
    7885.61  306066  138884
    7896.51  306061  140928
    7907.49  306033  142880
    7918.55  305999  145036
    7929.68  305988  147223
    7940.89  305538  149142
    7952.18  305764  151486
    7963.54  305613  153932
    7969.25  305999  155168

File: Fe_metal_rt_02.xdi
# XDI/1.0
# Column.1: energy eV
# Column.2: i0
# Column.3: itrans
# Beamline.name: APS 20-BM-B
# Beamline.notes: vert slits = unknown
# Detector.I0: N2 15cm
# Detector.I1: N2 15cm
# Element.edge: K
# Element.symbol: Fe
# Mono.d_spacing: 3.13550
# Mono.name: Si(111)
# Mono.notes: unfocussed, detuned 50%
# Sample.formula: Fe
# Sample.name: Fe foil  Room Temperature
# Sample.prep: foil
# Sample.reference: none
# Sample.temperature: Room Temperature
# Scan.start_time: 2001-08-09 14:04:00
# ///
#    Note: mono d_spacing is nominal!
#     data from NXS school, 2001
#     412 E XMU I0
#-------------
#   energy   i0   itrans
    6913.79  408448  478167
    6923.73  405265  477148
    6933.87  329201  389574
    6943.9  414839  493888
    6953.97  412792  494180
    6963.88  412135  495951
    6973.83  411702  498062
    6983.75  411374  500321
    6993.86  411035  502584
    7003.9  410914  505072
    7013.84  410811  507480
    7023.87  410554  509743
    7033.71  410385  511999
    7043.8  410311  514354
    7053.9  410141  516464
    7063.74  409802  518119
    7073.6  409470  519461
    7083.63  408807  519795
    7093.58  406972  516704
    7103.46  404177  505743
    7104.38  411665  513581
    7105.05  412236  512647
    7105.86  412133  509940
    7106.64  411948  506543
    7107.33  411647  502688
    7108.26  411317  495663
    7109.06  411144  486929
    7109.74  410921  471180
    7110.67  410775  430590
    7111.34  410740  356137
    7112.22  410356  264713
    7113.05  410106  224365
    7113.69  409924  201228
    7114.56  409782  178799
    7115.29  409736  167811
    7116.08  409701  162702
    7116.96  409531  156931
    7117.69  409493  145505
    7118.5  409400  121167
    7119.35  409365  99158.8
    7120.01  409278  82851.8
    7120.92  408989  64874.8
    7121.74  408835  54209.8
    7122.38  408773  47087.8
    7123.28  408648  41254.8
    7123.95  408644  37595.8
    7124.8  408464  34232.8
    7125.64  408381  31573.8
    7126.34  408225  29574.8
    7127.22  408108  26671.8
    7128.02  407711  24002.8
    7128.72  407470  21370.8
    7129.62  407604  18643.8
    7130.38  407620  17067.8
    7131.11  407359  16383.8
    7131.94  407266  17051.8
    7132.6  407194  18510.8
    7133.54  407053  20985.8
    7134.31  407097  22971.8
    7135.01  407031  24475.8
    7135.92  407056  25799.8
    7136.68  406975  26227.8
    7137.46  406870  26125.8
    7138.3  406849  25517.8
    7139.01  406845  24789.8
    7139.8  406714  23782.8
    7140.62  406598  23111.8
    7141.27  406666  22791.8
    7142.21  406666  22792.8
    7142.96  406651  23029.8
    7143.71  406588  23312.8
    7144.58  406432  23477.8
    7145.29  406510  23362.8
    7146.13  406464  22821.8
    7146.94  406541  22034.8
    7147.63  406447  21252.8
    7148.99  408480  19766.3
    7151.34  412248  18661.6
    7153.79  415988  18342
    7156.2  419580  18969.3
    7158.81  423266  19532.3
    7161.54  426903  19892.9
    7164.22  430294  20759.9
    7166.94  433504  21492
    7169.96  436705  22264.3
    7172.84  439880  23895.5
    7175.82  443024  26589.5
    7179.03  445955  29141.2
    7182.09  448789  29509.5
    7185.43  421845  26398.3
    7188.77  455071  25817.5
    7192.18  458092  23282
    7195.82  461031  22997.7
    7199.25  463991  25529.5
    7203.03  466658  29744.5
    7206.82  469363  33430.4
    7210.52  471533  30600.2
    7214.54  474582  22214.9
    7218.5  477297  17276.4
    7222.69  479823  17601.7
    7226.8  482680  22439.6
    7231.05  485132  29832.2
    7235.29  487699  36365.3
    7239.68  491354  38026
    7244.18  489048  35010.2
    7248.71  493438  33010.9
    7253.41  496151  34327
    7258.14  498558  35033.4
    7262.84  500752  33366.2
    7267.72  502719  31963.2
    7272.57  504821  29213.6
    7277.55  506378  27878.1
    7282.56  508258  26287.9
    7287.82  508387  24974.8
    7292.98  514509  28163.9
    7298.25  467182  30567.1
    7303.69  517095  38277.3
    7309.05  519422  40177.7
    7314.67  521389  40268
    7320.19  517684  40301.4
    7325.94  524903  41031.8
    7331.67  521842  41689.1
    7337.43  529044  43661.4
    7343.28  530667  41986.5
    7349.3  518647  36936.6
    7355.22  533833  34942.6
    7361.45  535653  32921.5
    7367.67  537836  33088.1
    7373.84  538262  36700.7
    7380.21  540622  44461
    7386.71  544047  49265.1
    7393.15  544791  48328
    7399.72  546215  47760.7
    7406.31  547973  48054.1
    7412.98  549616  47981.3
    7419.76  551234  48722.1
    7426.66  552846  50551.7
    7433.68  551244  50274
    7440.6  552878  48520.9
    7447.69  555891  46400.6
    7454.85  557743  46185.8
    7462.13  559269  47118.8
    7469.35  560758  49778.3
    7476.72  562274  52642.5
    7484.32  563801  55176.3
    7491.9  565449  57893.7
    7499.51  566700  58303.7
    7507.06  567991  57944.3
    7514.79  569266  58638.4
    7522.75  570262  59274.1
    7530.62  571505  59247.4
    7538.52  572508  59841.1
    7546.67  569862  60334.5
    7554.68  575813  60659.3
    7562.77  577183  60037.7
    7571.18  578214  61143.6
    7579.37  579310  63853
    7587.87  580613  66077.9
    7596.28  581298  66815.3
    7604.82  582266  67624.1
    7613.27  583431  69217.5
    7622.05  584763  69755.3
    7630.69  585816  70344.5
    7639.64  585879  72004.2
    7648.5  588274  73750.4
    7657.56  589003  74567.9
    7666.87  589691  74748
    7676.05  590450  74757.4
    7685.53  591734  75364.3
    7695.06  592936  76948.6
    7704.57  593255  78339.3
    7714.09  594292  80049.4
    7723.89  594926  81559.9
    7733.73  596188  82585.8
    7743.6  596722  83745.1
    7753.53  597596  84766.7
    7763.51  598636  86228.8
    7773.52  599390  87880.2
    7783.6  599993  89193
    7793.81  600848  90365.1
    7804.12  601474  91239.6
    7814.42  602076  92119.5
    7824.84  602730  93230.7
    7835.28  603397  94358.3
    7845.88  603800  95592.2
    7856.52  604700  97002.4
    7867.22  605115  98586
    7878  607076  100456
    7888.78  606994  101889
    7899.7  607130  103279
    7910.69  607500  104776
    7921.81  607976  106204
    7932.92  608330  107565
    7944.11  608639  108686
    7955.35  609784  110093
    7966.58  607998  111026
    7978.13  610866  112697
    7989.7  611022  114116
    8001.21  611127  115555
    8012.77  611526  117134
    8024.5  612107  118801
    8036.27  612266  120420
    8048.03  612487  122099
    8059.73  612584  123789
    8071.84  612355  125435
    8083.78  613343  127212
    8085.79  613265  127396

File: Fe_metal_rt_03.xdi
# XDI/1.0
# Column.1: energy eV
# Column.2: i0
# Column.3: itrans
# Beamline.name: APS 13-BM-D
# Beamline.notes: vert slits = 2mm (at 45m)
# Beamline.collimation: none
# Beamline.focusing: no
# Beamline.harmonic_rejection: detuned 50%
# Facility.name: APS
# Facility.energy: 7.00 GeV
# Facility.xray_source: APS bending magnet
# Detector.I0: N2 15cm
# Detector.I1: N2 15cm
# Element.edge: K
# Element.symbol: Fe
# Mono.d_spacing: 3.13550
# Mono.name: Si(111)
# Mono.notes: unfocussed, detuned 50%
# Sample.formula: Fe
# Sample.name: Fe metal  Room Temperature
# Sample.prep: standard foil (Joe Wong boxed set)
# Sample.reference: none
# Sample.temperature: Room Temperature
# Scan.edge_energy: 7112.
# Scan.start_time: 2002-03-16 14:18:25
# ///
#    Note: mono d_spacing is nominal!
#     Energy drive values recorded (encoder used, not recorded)
#     348 E XMU I0
#-------------
#   energy   i0   itrans
    6962  304130  276384
    6982  306236  284051
    7002  306230  289768
    7022  306056  295290
    7042  306258  301272
    7062  306012  306648
    7082  305934  311244
    7092.5  305588  312248
    7093.5  305538  312101
    7094.5  305488  311938
    7095.5  305460  312040
    7096.5  305332  312035
    7097.5  305330  311714
    7098.5  305244  311466
    7099.5  305172  311055
    7100.5  305154  310682
    7101.5  305144  310179
    7102.5  305014  309510
    7103.5  304990  308596
    7104.5  304972  307469
    7105.5  304932  305995
    7106.5  304864  303619
    7107.5  304834  300258
    7108.5  304816  294210
    7109.5  305162  281522
    7110.5  306222  243698
    7111.5  306212  182318
    7112.5  306188  148118
    7113.5  306140  128948
    7114.5  306120  116688
    7115.5  306002  112197
    7116.5  305382  107610
    7117.5  306368  94608.1
    7118.5  306028  77019.1
    7119.5  305826  61711.1
    7120.5  305798  48621.1
    7121.5  305720  39615.1
    7122.5  305658  34159.1
    7123.5  305610  30349.1
    7124.5  305584  27616.1
    7125.5  305628  25318.1
    7126.5  305470  23050.1
    7127.5  305426  20479.1
    7128.5  305400  17866.1
    7129.5  305372  15735.1
    7130.5  305270  14698.1
    7131.5  305278  15330.1
    7132.88  305226  17839.1
    7134.71  305188  21168.1
    7136.61  305196  22244.1
    7138.58  305076  21109.1
    7140.63  304998  19760.1
    7142.76  304934  19999.1
    7144.97  304896  20144.1
    7147.25  304898  18545.1
    7149.61  304862  16871.1
    7152.04  306050  16279.1
    7154.55  306208  16288.1
    7157.14  306202  16794.1
    7159.8  306138  16912.1
    7162.54  306100  17262.1
    7165.35  305964  17816.1
    7168.25  305902  18211.1
    7171.21  304892  18891.1
    7174.26  305946  20486.1
    7177.38  305716  22435.1
    7180.57  305728  23320.1
    7183.85  305706  22774.1
    7187.2  305698  21164.1
    7190.62  305568  19280.1
    7194.13  305638  18077.1
    7197.7  305500  19079.1
    7201.36  305494  21487.1
    7205.09  305402  24388.1
    7208.9  305358  24649.1
    7212.78  305284  19918.1
    7216.74  305268  15026.1
    7220.78  305208  13529.1
    7224.89  305178  15626.1
    7229.08  305134  19958.1
    7233.34  305012  24850.1
    7237.69  304990  27485.1
    7242.1  304918  26720.1
    7246.6  305000  24688.1
    7251.17  304848  24355.1
    7255.81  304774  25454.1
    7260.54  305562  24940.1
    7265.34  306032  23971.1
    7270.21  306540  22659.1
    7275.16  306170  21034.1
    7280.19  306096  20279.1
    7285.3  306000  19085.1
    7290.48  305956  19281.1
    7295.73  305938  22410.1
    7301.07  305756  25819.1
    7306.48  306864  28036.1
    7311.96  305750  28401.1
    7317.53  305778  28529.1
    7323.16  305642  28791.1
    7328.88  305564  28964.1
    7334.67  305574  29969.1
    7340.54  305534  30272.1
    7346.48  305532  28244.1
    7352.5  305380  25906.1
    7358.6  305374  24267.1
    7364.77  305346  23465.1
    7371.02  305298  24388.1
    7377.35  305186  28030.1
    7383.75  305144  32665.1
    7390.23  305142  33628.1
    7396.78  305064  32805.1
    7403.41  304996  32883.1
    7410.12  304922  32928.1
    7416.9  305526  33142.1
    7423.76  304572  33941.1
    7430.7  304848  34620.1
    7437.71  305608  34268.1
    7444.8  306258  32871.1
    7451.96  306312  32014.1
    7459.2  306214  32328.1
    7466.52  306174  33433.1
    7473.91  306058  35335.1
    7481.39  306012  36830.1
    7488.93  305996  38614.1
    7496.55  305910  39682.1
    7504.25  305080  39377.1
    7512.03  305960  39660.1
    7519.88  305728  40208.1
    7527.81  305764  40407.1
    7535.81  305652  40553.1
    7543.89  305730  41187.1
    7552.05  305610  41453.1
    7560.28  305576  41057.1
    7568.59  305474  41259.1
    7576.98  305446  42701.1
    7585.44  305462  44318.1
    7593.98  305488  45196.1
    7602.59  305338  45608.1
    7611.28  305318  46576.1
    7620.05  305194  47223.1
    7628.89  305116  47442.1
    7637.81  305168  48484.1
    7646.81  305010  49621.1
    7655.88  304862  50297.1
    7665.03  306822  50989.1
    7674.26  304834  50750.1
    7683.56  305798  51161.1
    7692.94  306320  52164.1
    7702.39  306270  53224.1
    7711.92  306162  54266.1
    7721.52  306104  55372.1
    7731.21  306078  56154.1
    7740.97  309812  57638.1
    7750.8  305928  57750.1
    7760.72  305892  58644.1
    7770.7  305978  59693.1
    7780.77  306116  60789.1
    7790.91  305726  61613.1
    7801.12  305708  62331.1
    7811.42  305610  63032.1
    7821.79  305596  63830.1
    7832.23  305982  64732.1
    7842.76  305548  65550.1
    7853.35  305518  66502.1
    7864.03  305408  67609.1
    7874.78  305402  68825.1
    7885.61  305342  69966.1
    7896.51  305210  71057.1
    7907.49  305314  72219.1
    7918.55  305068  73222.1
    7929.68  305106  74326.1
    7940.89  304758  75196.1
    7952.18  304972  76276.1
    7963.54  304902  77322.1
    7969.25  305048  77854.1