Folder: XASDataLibrary/data/Fe (part 3)

File: fen_rt.xdi
# XDI/1.0 GSE/1.0
# Column.1: energy eV
# Column.2: mutrans
# Column.3: i0
# Element.edge: K
# Element.symbol: Fe
# Scan.edge_energy: 7112.
# Mono.name: Si 111
# Mono.d_spacing: 3.13550
# Beamline.name: 13-BM-D
# Beamline.collimation: none
# Beamline.focusing: no
# Beamline.harmonic_rejection: detuned 50%
# Facility.name: APS
# Facility.energy: 7.00 GeV
# Facility.xray_source: APS bending magnet
# Scan.start_time: 2002-03-16T17:50:01
# Detector.I0: 15cm  N2
# Detector.I1: 15cm  N2
# Sample.name: FeN
# Sample.prep: powder on tape, 5 layers
# ///
# room temperature
# measured at beamline 13-BM-D
# vert slits = 2mm (at 45m)
#----
#   energy       mutrans            i0
  6962      -0.39452        302897.20
  6982      -0.423987        304504.20
  7002      -0.45328        304407.20
  7022      -0.480747        304358.20
  7042      -0.508376        304549.20
  7062      -0.532476        304266.20
  7082      -0.553513        304163.20
  7092.5      -0.557304        303770.20
  7093.5      -0.557046        303717.20
  7094.5      -0.557356        303632.20
  7095.5      -0.556705        303530.20
  7096.5      -0.555116        303490.20
  7097.5      -0.554778        303534.20
  7098.5      -0.55304        303466.20
  7099.5      -0.551531        303521.20
  7100.5      -0.549849        303347.20
  7101.5      -0.546599        303315.20
  7102.5      -0.543221        303348.20
  7103.5      -0.539073        303205.20
  7104.5      -0.533336        303044.20
  7105.5      -0.524634        304831.20
  7106.5      -0.514642        305012.20
  7107.5      -0.499194        304889.20
  7108.5      -0.471847        304901.20
  7109.5      -0.412434        304782.20
  7110.5      -0.240651        304785.20
  7111.5       0.0813303    304759.20
  7112.5       0.283435        304670.20
  7113.5       0.460815        304652.20
  7114.5       0.68762        304610.20
  7115.5       0.861633        304525.20
  7116.5       0.970353        303962.20
  7117.5        1.07448        305040.20
  7118.5        1.21196        304552.20
  7119.5        1.38091        304389.20
  7120.5        1.55663        304379.20
  7121.5        1.71458        304335.20
  7122.5        1.85486        304268.20
  7123.5        1.97966        304159.20
  7124.5        2.08437        304114.20
  7125.5        2.18825        304125.20
  7126.5        2.29236        304057.20
  7127.5        2.38917        303931.20
  7128.5        2.48276        303910.20
  7129.5        2.54438        303830.20
  7130.5        2.57834        303797.20
  7131.5        2.5829        303795.20
  7132.88        2.5575        303791.20
  7134.71        2.47314        303692.20
  7136.61        2.40816        303722.20
  7138.58        2.34969        303675.20
  7140.63        2.31559        304507.20
  7142.76        2.30177        305522.20
  7144.97        2.32425        305633.20
  7147.25        2.37666        305632.20
  7149.61        2.42382        305436.20
  7152.04        2.43574        305420.20
  7154.55        2.40127        305290.20
  7157.14        2.34376        305340.20
  7159.8        2.28664        305286.20
  7162.54        2.2277        305191.20
  7165.35        2.17234        305144.20
  7168.25        2.14277        305092.20
  7171.21        2.13854        304057.20
  7174.26        2.17081        305038.20
  7177.38        2.20587        304990.20
  7180.57        2.25193        304909.20
  7183.85        2.30582        304866.20
  7187.2        2.35173        304851.20
  7190.62        2.38587        304713.20
  7194.13        2.40296        304690.20
  7197.7        2.39256        304644.20
  7201.36        2.3477        304640.20
  7205.09        2.28679        304485.20
  7208.9        2.23431        304497.20
  7212.78        2.18604        304468.20
  7216.74        2.15571        304386.20
  7220.78        2.15105        304327.20
  7224.89        2.16388        304331.20
  7229.08        2.17723        304267.20
  7233.34        2.17537        304169.20
  7237.69        2.17531        304142.20
  7242.1        2.19283        305709.20
  7246.6        2.23292        306136.20
  7251.17        2.25559        305912.20
  7255.81        2.25318        305898.20
  7260.54        2.21848        305838.20
  7265.34        2.15538        305466.20
  7270.21        2.09912        306044.20
  7275.16        2.0676        305695.20
  7280.19        2.07664        305615.20
  7285.3        2.0896        305660.20
  7290.48        2.08906        305575.20
  7295.73        2.08478        305501.20
  7301.07        2.0857        305356.20
  7306.48        2.09095        306218.20
  7311.96        2.10265        305302.20
  7317.53        2.1174        305302.20
  7323.16        2.11119        305311.20
  7328.88        2.08324        305208.20
  7334.67        2.03672        305109.20
  7340.54        1.99442        305101.20
  7346.48        1.96522        305093.20
  7352.5        1.95394        304960.20
  7358.6        1.95223        304917.20
  7364.77        1.95259        304879.20
  7371.02        1.95839        304889.20
  7377.35        1.9564        304853.20
  7383.75        1.95025        304737.20
  7390.23        1.94337        304726.20
  7396.78        1.936        304609.20
  7403.41        1.92659        304586.20
  7410.12        1.91368        305940.20
  7416.9        1.89282        307099.20
  7423.76        1.88063        306110.20
  7430.7        1.86261        306243.20
  7437.71        1.84228        306170.20
  7444.8        1.8237        306218.20
  7451.96        1.80836        306157.20
  7459.2        1.79959        306188.20
  7466.52        1.7938        306048.20
  7473.91        1.78726        305941.20
  7481.39        1.78191        305907.20
  7488.93        1.77481        305867.20
  7496.55        1.76401        305808.20
  7504.25        1.74566        304741.20
  7512.03        1.72851        305741.20
  7519.88        1.71231        305694.20
  7527.81        1.69944        305708.20
  7535.81        1.68524        305616.20
  7543.89        1.67282        305526.20
  7552.05        1.65907        305524.20
  7560.28        1.64774        305455.20
  7568.59        1.63891        305447.20
  7576.98        1.62828        305392.20
  7585.44        1.61573        305357.20
  7593.98        1.60003        305404.20
  7602.59        1.58603        305231.20
  7611.28        1.57078        305283.20
  7620.05        1.55637        305130.20
  7628.89        1.54275        305104.20
  7637.81        1.53088        305008.20
  7646.81        1.51574        304883.20
  7655.88        1.50175        304806.20
  7665.03        1.48635        306243.20
  7674.26        1.47429        304699.20
  7683.56        1.46242        304924.20
  7692.94        1.44865        304632.20
  7702.39        1.437        304543.20
  7711.92        1.4251        304561.20
  7721.52        1.41325        304457.20
  7731.21        1.39874        304304.20
  7740.97        1.38145        308151.20
  7750.8        1.36995        304211.20
  7760.72        1.35418        304277.20
  7770.7        1.33897        304240.20
  7780.77        1.32432        304528.20
  7790.91        1.31091        304128.20
  7801.12        1.29675        304066.20
  7811.42        1.28195        304032.20
  7821.79        1.26989        304032.20
  7832.23        1.25549        304424.20
  7842.76        1.24183        303856.20
  7853.35        1.22795        303790.20
  7864.03        1.21451        303958.20
  7874.78        1.19968        303759.20
  7885.61        1.18529        303702.20
  7896.51        1.17243        303582.20
  7907.49        1.15809        303648.20
  7918.55        1.14335        303505.20
  7929.68        1.12829        303479.20
  7940.89        1.11398        303080.20
  7952.18        1.10041        304196.20
  7963.54        1.08412        304098.20
  7969.25        1.07618        304239.20

File: FeN_rt_01.xdi
# XDI/1.0
# Column.1: energy eV
# Column.2: i0
# Column.3: itrans
# Beamline.name: APS 13-BM-D
# Beamline.notes: vert slits = 2mm (at 45m)
# Beamline.collimation: none
# Beamline.focusing: no
# Beamline.harmonic_rejection: detuned 50%
# Facility.name: APS
# Facility.energy: 7.00 GeV
# Facility.xray_source: APS bending magnet
# Detector.I0: N2 15cm
# Detector.I1: N2 15cm
# Element.edge: K
# Element.symbol: Fe
# Mono.d_spacing: 3.13550
# Mono.name: Si(111)
# Mono.notes: unfocussed, detuned 50%
# Sample.formula: FeN
# Sample.name: FeN powder  Room Temperature
# Sample.prep: powder on tape, 5 layers
# Sample.reference: none
# Sample.temperature: Room Temperature
# Scan.edge_energy: 7112.
# Scan.start_time: 2002-03-16 17:50:01
# ///
#    Note: mono d_spacing is nominal!
#     Energy drive values recorded (encoder used, not recorded)
#-------------
#   energy   i0   itrans
    6962  302897  449400
    6982  304504  465295
    7002  304407  478974
    7022  304358  492233
    7042  304549  506340
    7062  304266  518209
    7082  304163  529047
    7092.5  303770  530370
    7093.5  303717  530141
    7094.5  303632  530157
    7095.5  303530  529634
    7096.5  303490  528723
    7097.5  303534  528621
    7098.5  303466  527585
    7099.5  303521  526885
    7100.5  303347  525698
    7101.5  303315  523937
    7102.5  303348  522227
    7103.5  303205  519820
    7104.5  303044  516572
    7105.5  304831  515116
    7106.5  305012  510297
    7107.5  304889  502272
    7108.5  304901  488742
    7109.5  304782  460370
    7110.5  304785  387710
    7111.5  304759  280954
    7112.5  304670  229475
    7113.5  304652  192165
    7114.5  304610  153149
    7115.5  304525  128653
    7116.5  303962  115186
    7117.5  305040  104163
    7118.5  304552  90639.2
    7119.5  304389  76508.2
    7120.5  304379  64177.2
    7121.5  304335  54792.2
    7122.5  304268  47610.2
    7123.5  304159  42009.2
    7124.5  304114  37827.2
    7125.5  304125  34096.2
    7126.5  304057  30718.2
    7127.5  303931  27872.2
    7128.5  303910  25380.2
    7129.5  303830  23857.2
    7130.5  303797  23058.2
    7131.5  303795  22953.2
    7132.88  303791  23543.2
    7134.71  303692  25607.2
    7136.61  303722  27329.2
    7138.58  303675  28970.2
    7140.63  304507  30057.2
    7142.76  305522  30577.2
    7144.97  305633  29908.2
    7147.25  305632  28381.2
    7149.61  305436  27056.2
    7152.04  305420  26734.2
    7154.55  305290  27660.2
    7157.14  305340  29302.2
    7159.8  305286  31019.2
    7162.54  305191  32892.2
    7165.35  305144  34759.2
    7168.25  305092  35796.2
    7171.21  304057  35826.2
    7174.26  305038  34800.2
    7177.38  304990  33596.2
    7180.57  304909  32075.2
    7183.85  304866  30388.2
    7187.2  304851  29023.2
    7190.62  304713  28036.2
    7194.13  304690  27559.2
    7197.7  304644  27843.2
    7201.36  304640  29120.2
    7205.09  304485  30933.2
    7208.9  304497  32601.2
    7212.78  304468  34210.2
    7216.74  304386  35254.2
    7220.78  304327  35412.2
    7224.89  304331  34961.2
    7229.08  304267  34490.2
    7233.34  304169  34543.2
    7237.69  304142  34542.2
    7242.1  305709  34117.2
    7246.6  306136  32822.2
    7251.17  305912  32063.2
    7255.81  305898  32139.2
    7260.54  305838  33267.2
    7265.34  305466  35391.2
    7270.21  306044  37510.2
    7275.16  305695  38667.2
    7280.19  305615  38309.2
    7285.3  305660  37821.2
    7290.48  305575  37831.2
    7295.73  305501  37984.2
    7301.07  305356  37931.2
    7306.48  306218  37839.2
    7311.96  305302  37287.2
    7317.53  305302  36741.2
    7323.16  305311  36971.2
    7328.88  305208  38006.2
    7334.67  305109  39803.2
    7340.54  305101  41522.2
    7346.48  305093  42751.2
    7352.5  304960  43217.2
    7358.6  304917  43285.2
    7364.77  304879  43264.2
    7371.02  304889  43015.2
    7377.35  304853  43096.2
    7383.75  304737  43345.2
    7390.23  304726  43643.2
    7396.78  304609  43949.2
    7403.41  304586  44361.2
    7410.12  305940  45137.2
    7416.9  307099  46263.2
    7423.76  306110  46680.2
    7430.7  306243  47549.2
    7437.71  306170  48514.2
    7444.8  306218  49432.2
    7451.96  306157  50186.2
    7459.2  306188  50633.2
    7466.52  306048  50904.2
    7473.91  305941  51220.2
    7481.39  305907  51489.2
    7488.93  305867  51849.2
    7496.55  305808  52402.2
    7504.25  304741  53186.2
    7512.03  305741  54284.2
    7519.88  305694  55162.2
    7527.81  305708  55879.2
    7535.81  305616  56661.2
    7543.89  305526  57352.2
    7552.05  305524  58146.2
    7560.28  305455  58795.2
    7568.59  305447  59315.2
    7576.98  305392  59938.2
    7585.44  305357  60688.2
    7593.98  305404  61658.2
    7602.59  305231  62492.2
    7611.28  305283  63463.2
    7620.05  305130  64352.2
    7628.89  305104  65229.2
    7637.81  305008  65987.2
    7646.81  304883  66966.2
    7655.88  304806  67892.2
    7665.03  306243  69271.2
    7674.26  304699  69758.2
    7683.56  304924  70643.2
    7692.94  304632  71554.2
    7702.39  304543  72371.2
    7711.92  304561  73242.2
    7721.52  304457  74090.2
    7731.21  304304  75135.2
    7740.97  308151  77412.2
    7750.8  304211  77306.2
    7760.72  304277  78552.2
    7770.7  304240  79746.2
    7780.77  304528  80999.2
    7790.91  304128  81985.2
    7801.12  304066  83137.2
    7811.42  304032  84367.2
    7821.79  304032  85391.2
    7832.23  304424  86741.2
    7842.76  303856  87770.2
    7853.35  303790  88978.2
    7864.03  303958  90231.2
    7874.78  303759  91520.2
    7885.61  303702  92829.2
    7896.51  303582  93993.2
    7907.49  303648  95371.2
    7918.55  303505  96742.2
    7929.68  303479  98201.2
    7940.89  303080  99486.2
    7952.18  304196  101216
    7963.54  304098  102846
    7969.25  304239  103714

File: feo_rt1.xdi
# XDI/1.0
# Column.1: energy eV
# Column.2: mutrans
# Column.3: i0
# Element.edge: K
# Element.symbol: Fe
# Scan.start_time: 2001-08-10T11:10:00
# Mono.name: Si 111
# Mono.d_spacing: 3.13553
# Beamline.name: 20BM
# Beamline.focusing: no
# Beamline.harmonic_rejection: detuned
# Detector.I0:  N2 15cm
# Detector.I1:  N2 15cm
# Sample.name: FeO
# Sample.notes: room temperature, powder on tape, 4 layers
# ///
#  data from NXS school, 2001
#------------------------
#   energy     mutrans       i0
  6911.77      -0.0359926    280101.00
  6921.7      -0.0421935    278149.00
  6931.74      -0.0473656    265707.00
  6941.79      -0.0543451    285989.00
  6951.92      -0.0604045    284411.00
  6961.96      -0.0662533    283824.00
  6971.92      -0.0722761    283397.00
  6981.99      -0.078131    283214.00
  6991.93      -0.0838497    282971.00
  7001.85      -0.0897082    282885.00
  7011.84      -0.095368    282732.00
  7021.87      -0.101178        282484.00
  7031.97      -0.106721        282225.00
  7041.9      -0.112039        282087.00
  7051.83      -0.117461        282011.00
  7061.84      -0.122573        281847.00
  7071.81      -0.127404        281634.00
  7081.69      -0.131602        281309.00
  7091.53      -0.134429        280416.00
  7101.57      -0.136003        240033.00
  7102.28      -0.138487        257073.00
  7103.19      -0.13362        279482.00
  7104      -0.131842        283089.00
  7104.62      -0.131056        283337.00
  7105.52      -0.129725        283327.00
  7106.24      -0.128206        283187.00
  7107.06      -0.126507        283049.00
  7107.94      -0.124189        282903.00
  7108.6      -0.121595        282677.00
  7109.51      -0.115412        282510.00
  7110.28      -0.103026        282346.00
  7111.01      -0.0812904    282210.00
  7111.92      -0.0602743    282115.00
  7112.67      -0.0476091    281994.00
  7113.38      -0.0346232    281871.00
  7114.25      -0.0236213    281778.00
  7114.9      -0.00244941    281840.00
  7115.81       0.0458362    281660.00
  7116.67       0.110096        281567.00
  7117.26       0.190802        281547.00
  7118.24       0.334392        281500.00
  7118.97       0.465947        281469.00
  7119.77       0.595936        281425.00
  7120.64       0.715063        281376.00
  7121.32       0.813311        281224.00
  7122.1       0.969825        281217.00
  7122.93        1.15201        281186.00
  7123.59        1.30646        281139.00
  7124.54        1.44881        281092.00
  7125.34        1.52539        281108.00
  7125.99        1.60541        281001.00
  7126.97        1.72809        280979.00
  7127.63        1.81587        280685.00
  7128.51        1.84958        280587.00
  7129.36        1.78212        280602.00
  7129.98        1.68084        280588.00
  7130.85        1.52685        280368.00
  7131.61        1.41473        280324.00
  7132.33        1.33496        280358.00
  7133.25        1.27113        280340.00
  7134.01        1.23594        280338.00
  7134.77        1.19946        280376.00
  7135.68        1.16585        280380.00
  7136.31        1.14294        280310.00
  7137.23        1.12344        280348.00
  7138.05        1.11835        280265.00
  7138.68        1.12327        280231.00
  7139.59        1.14503        280226.00
  7140.3        1.17117        280225.00
  7141.1        1.20326        280261.00
  7141.97        1.22514        280277.00
  7142.68        1.23056        280215.00
  7143.5        1.22033        280148.00
  7144.37        1.19741        280259.00
  7145.01        1.1729        280209.00
  7145.93        1.13908        280171.00
  7147.13        1.09989        281607.47
  7149.48        1.0462        284295.16
  7151.97        1.02033        286899.06
  7154.54        1.00939        289438.03
  7157.06        1.01827        291973.00
  7159.68        1.04265        294404.84
  7162.38        1.07166        296860.50
  7165.24        1.13185        299143.88
  7168.13        1.21999        301310.91
  7171.05        1.28285        303495.50
  7174.16        1.30493        305727.59
  7177.21        1.28712        307837.12
  7180.55        1.23223        309864.06
  7183.68        1.18381        310947.31
  7187.23        1.14414        313204.84
  7190.59        1.10961        316211.62
  7194.16        1.08659        318316.56
  7197.85        1.08963        320241.66
  7201.35        1.1062        322265.88
  7205.35        1.11374        324151.12
  7209.15        1.10919        325885.44
  7213.07        1.11282        327662.72
  7217.07        1.12908        329532.97
  7221.2        1.14315        331416.12
  7225.45        1.13031        333202.22
  7229.69        1.09952        334967.16
  7234.08        1.06543        336863.97
  7238.49        1.05256        338886.59
  7243.02        1.07369        335643.00
  7247.52        1.10014        338137.22
  7252.23        1.10451        342507.16
  7256.89        1.09724        344216.84
  7261.66        1.09704        345766.25
  7266.39        1.10141        347433.34
  7271.37        1.10117        348895.09
  7276.51        1.08967        349788.53
  7281.49        1.06777        351364.59
  7286.68        1.03884        352112.28
  7291.9        1.01255        350983.59
  7297.36        1.00173        355658.47
  7302.57        1.00619        357607.94
  7308.1        1.01769        358969.97
  7313.65        1.02708        360319.56
  7319.17        1.02922        361472.69
  7325.02        1.02626        363008.34
  7330.6        1.01956        363831.53
  7336.42        1.00947        365954.19
  7342.4       0.997054        366602.38
  7348.29       0.985442        367739.03
  7354.38       0.977198        369536.16
  7360.5       0.97046        370775.72
  7366.71       0.962225        371863.75
  7372.99       0.954879        370256.25
  7379.47       0.95062        374052.16
  7385.67       0.948011        363252.47
  7392.25       0.946841        376942.25
  7398.92       0.943166        377900.41
  7405.55       0.935643        378946.97
  7412.29       0.924805        380038.91
  7419.01       0.912655        381177.25
  7425.93       0.903248        382145.97
  7432.83       0.896996        383357.03
  7439.77       0.8916        382051.50
  7446.93       0.886376        384549.31
  7454.19       0.882426        385779.47
  7461.4       0.879106        386958.97
  7468.74       0.874788        388015.81
  7476.02       0.868702        389020.97
  7483.61       0.860978        390137.47
  7491.05       0.850921        390942.31
  7498.51       0.841202        391929.44
  7506.25       0.833344        392868.88
  7514.07       0.8272        393786.62
  7521.94       0.820917        394610.69
  7529.65       0.814435        395401.03
  7537.68       0.807913        396149.66
  7545.75       0.801791        395706.59
  7553.58       0.796493        398842.81
  7561.93       0.790491        399600.28
  7570.21       0.784424        400320.03
  7578.46       0.777085        401116.06
  7586.9       0.769422        401801.34
  7595.2       0.762063        402536.91
  7603.82       0.754732        403449.69
  7612.29       0.747676        404234.75
  7621.03       0.740588        404951.06
  7629.76       0.733857        403380.62
  7638.57       0.727463        405550.41
  7647.68       0.720847        407117.44
  7656.71       0.714261        407800.69
  7665.92       0.707599        408571.19
  7675.25       0.700218        409369.94
  7684.6       0.693068        409949.88
  7693.97       0.685707        410693.03
  7703.62       0.678469        411286.44
  7713.27       0.67105        411934.03
  7722.96       0.664082        412580.88
  7732.58       0.656956        413054.88
  7742.52       0.649946        413632.12
  7752.52       0.643376        414321.56
  7762.54       0.636212        414763.22
  7772.63       0.628948        415498.06
  7782.72       0.621683        415908.09
  7792.83       0.614447        416358.31
  7803.02       0.607382        416879.75
  7813.3       0.600155        417389.38
  7823.65       0.59282        417789.16
  7834.1       0.58569        418265.16
  7844.66       0.578669        418616.31
  7855.29       0.571363        418978.69
  7866.02       0.56433        419648.19
  7876.79       0.557262        420798.91
  7887.59       0.550096        420576.78
  7898.5       0.542901        420821.84
  7909.39       0.535833        421114.06
  7920.37       0.52889        421607.44
  7931.38       0.521612        421911.00
  7942.46       0.514766        422301.69
  7953.75       0.508421        418064.59
  7965.18       0.500645        422592.62
  7976.62       0.493253        414639.81
  7988.09       0.486471        423691.16
  7999.48       0.479526        423864.66
  8011.17       0.472332        424291.34
  8023.01       0.46511        424529.16
  8034.68       0.457792        424581.09
  8046.4       0.450799        424702.22
  8058.38       0.443526        424880.47
  8070.2       0.436578        423373.88
  8082.07       0.429472        425336.41
  8084.09       0.428428        425436.22