Folder: XASDataLibrary/data/Mn (part 5)

File: MnO_rt_03.xdi
# XDI/1.0
# Column.1: energy eV
# Column.2: i0
# Column.3: itrans
# Column.4: irefer
# Beamline.name: SSRL 4-3
# Detector.I0: N2 15cm
# Detector.I1: N2 30cm
# Detector.I2: N2 15cm
# Element.edge: K
# Element.symbol: Mn
# Mono.d_spacing: 1.92009
# Mono.name: Si(220)
# Mono.notes: unfocused, detuned 10%
# Sample.formula: MnO
# Sample.name: MnO
# Sample.prep: powder, mixed with B(OH)3
# Sample.reference: Mn filter
# Sample.temperature: room temperature
# Scan.start_time: 1995-06-20 02:43:21
# ///
#    Note: mono d_spacing is nominal!
#     217  E XMU I0
#-------------
#   energy   i0   itrans  irefer
    6520  30792.5  38290.3  19360
    6521  30777.5  38309.3  19374
    6522  30762.5  38283.3  19299
    6523  30752.5  38258.3  19230
    6524  30746.5  38264.3  19203
    6525  30754.5  38287.3  19171
    6526  30744.5  38294.3  19163
    6527  30735.5  38275.3  19088
    6528  30726.5  38290.3  19086
    6529  30722.5  38284.3  19033
    6530  30706.5  38247.3  18944
    6531.01  30702.5  38256.3  18913
    6532.01  30696.5  38248.3  18846
    6533.01  30678.5  38225.3  18788
    6534.01  30674.5  38207.3  18711
    6535.02  30669.5  38198.3  18637
    6535.32  30676.5  38213.3  18647
    6535.67  30673.5  38179.3  18558
    6536.02  30678.5  38218.3  18593
    6536.32  30677.5  38194.3  18539
    6536.67  30660.5  38141.3  18442
    6537.02  30659.5  38142.3  18412
    6537.33  30654.5  38105.3  18333
    6537.68  30650.5  38087.3  18268
    6537.98  30650.5  38066.3  18184
    6538.33  30637.5  38003.3  18026
    6538.68  30627.5  37930.3  17819
    6538.98  30629.5  37903.3  17664
    6539.34  30622.5  37808.3  17330
    6539.69  30616.5  37733.3  16995
    6539.99  30613.5  37696.3  16749
    6540.34  30604.5  37635.3  16536
    6540.64  30606.5  37634.3  16543
    6540.99  30606.5  37625.3  16597
    6541.35  30610.5  37626.3  16634
    6541.65  30603.5  37528.3  16491
    6542  30596.5  37427.3  16350
    6542.35  30598.5  37273.3  16126
    6542.65  30593.5  37124.3  15947
    6543.01  30598.5  36891.3  15666
    6543.31  30591.5  36639.3  15378
    6543.66  30582.5  36303.3  14985
    6544.01  30580.5  35939.3  14504
    6544.32  30570.5  35674.3  14149
    6544.67  30574.5  35372.3  13670
    6545.02  30576.5  35153.3  13265
    6545.32  30570.5  34996.3  12928
    6545.68  30566.5  34824.3  12503
    6545.98  30572.5  34752.3  12218
    6546.33  30563.5  34633.3  11817
    6546.68  30557.5  34549.3  11484
    6546.99  30557.5  34474.3  11217
    6547.34  30539.5  34327.3  10865
    6547.69  30536.5  34230.3  10642
    6547.99  30529.5  34136.3  10475
    6548.35  30542.5  34077.3  10369
    6548.65  30525.5  33949.3  10211
    6549  30529.5  33821.3  10079
    6549.35  30517.5  33643.3  9923
    6549.66  30526.5  33540.3  9873
    6550.01  30515.5  33307.3  9675
    6550.31  30512.5  33197.3  9645
    6550.67  30513.5  33041.3  9508
    6551.02  30509.5  32953.3  9446
    6551.32  30507.5  32898.3  9391
    6551.68  30505.5  32860.3  9343
    6551.98  30503.5  32831.3  9312
    6552.33  30507.5  32797.3  9272
    6552.69  30502.5  32767.3  9259
    6552.99  30502.5  32723.3  9219
    6553.34  30489.5  32651.3  9171
    6553.65  30490.5  32608.3  9156
    6554  30481.5  32536.3  9106
    6554.35  30507.5  32584.3  9186
    6554.66  30503.5  32549.3  9112
    6555.01  30501.5  32593.3  9106
    6555.31  30496.5  32633.3  9031
    6555.67  30495.5  32753.3  9024
    6556.02  30491.5  32905.3  9020
    6556.32  30516.5  33091.3  9060
    6556.68  30525.5  33271.3  9066
    6556.98  30511.5  33362.3  9005
    6557.34  30509.5  33488.3  8960
    6557.69  30516.5  33653.3  9009
    6557.99  30510.5  33741.3  8999
    6558.35  30506.5  33787.3  8920
    6558.65  30504.5  33847.3  8918
    6559.01  30498.5  33879.3  8876
    6559.31  30494.5  33927.3  8909
    6559.66  30486.5  33912.3  8834
    6560.02  30484.5  33942.3  8839
    6560.32  30479.5  33974.3  8875
    6560.68  30478.5  33967.3  8825
    6560.98  30475.5  33997.3  8858
    6561.33  30472.5  34008.3  8834
    6561.69  30478.5  34074.3  8906
    6561.99  30461.5  34030.3  8835
    6562.35  30465.5  34069.3  8857
    6562.65  30456.5  34083.3  8894
    6563.01  30452.5  34062.3  8847
    6563.31  30447.5  34056.3  8837
    6563.66  30446.5  34045.3  8825
    6564.02  30449.5  34093.3  8912
    6564.32  30438.5  34015.3  8820
    6564.68  30443.5  34012.3  8832
    6564.98  30452.5  34025.3  8864
    6565.34  30438.5  33934.3  8773
    6565.64  30443.5  33931.3  8811
    6566  30447.5  33869.3  8762
    6566.35  30450.5  33861.3  8809
    6566.66  30431.5  33761.3  8722
    6567.01  30432.5  33733.3  8735
    6567.32  30425.5  33682.3  8688
    6567.67  30418.5  33633.3  8646
    6567.98  30418.5  33613.3  8618
    6568.33  30416.5  33608.3  8602
    6568.69  30409.5  33619.3  8589
    6568.99  30412.5  33657.3  8602
    6569.35  30409.5  33715.3  8629
    6569.65  30403.5  33716.3  8578
    6570.01  30416.5  33790.3  8596
    6570.31  30395.5  33779.3  8537
    6570.67  30385.5  33809.3  8516
    6571.02  30389.5  33873.3  8523
    6571.33  30396.5  33960.3  8588
    6571.69  30392.5  33988.3  8556
    6571.99  30385.5  34012.3  8550
    6572.35  30371.5  34014.3  8517
    6572.65  30387.5  34070.3  8546
    6573.01  30384.5  34071.3  8508
    6573.31  30384.5  34091.3  8515
    6573.67  30366.5  34077.3  8489
    6573.98  30353.5  34063.3  8467
    6574.33  30347.5  34077.3  8484
    6574.69  30340.5  34057.3  8443
    6574.99  30330.5  34048.3  8438
    6575.35  30333.5  34062.3  8449
    6575.65  30325.5  34004.3  8352
    6576.01  30331.5  34035.3  8382
    6576.32  30342.5  34055.3  8384
    6576.67  30333.5  34058.3  8384
    6576.98  30339.5  34091.3  8425
    6577.34  30331.5  34046.3  8348
    6577.69  30333.5  34077.3  8380
    6578  30330.5  34067.3  8339
    6578.35  30336.5  34116.3  8391
    6578.66  30324.5  34078.3  8329
    6579.02  30319.5  34090.3  8337
    6579.32  30321.5  34100.3  8336
    6579.68  30309.5  34087.3  8320
    6579.98  30308.5  34078.3  8292
    6580.75  30297.5  34072.3  8289
    6581.52  30302.5  34107.3  8342
    6582.28  30294.5  34066.3  8276
    6583.05  30277.5  34039.3  8266
    6583.81  30262.5  33979.3  8201
    6584.53  30264.5  33982.3  8209
    6585.29  30256.5  33952.3  8165
    6586.06  30248.5  33926.3  8109
    6586.82  30235.5  33944.3  8137
    6587.59  30227.5  33902.3  8063
    6588.36  30222.5  33891.3  8069
    6589.07  30212.5  33813.3  7987
    6589.84  30210.5  33765.3  7980
    6590.61  30200.5  33670.3  7908
    6591.38  30200.5  33634.3  7928
    6592.15  30177.5  33515.3  7825
    6592.86  30168.5  33463.3  7799
    6593.63  30169.5  33436.3  7781
    6594.4  30151.5  33373.3  7707
    6595.17  30148.5  33372.3  7685
    6595.89  30147.5  33369.3  7640
    6596.65  30136.5  33370.3  7601
    6597.42  30139.5  33406.3  7598
    6598.19  30128.5  33427.3  7592
    6598.96  30116.5  33393.3  7499
    6599.68  30108.5  33434.3  7523
    6600.45  30096.5  33426.3  7439
    6601.22  30087.5  33481.3  7448
    6601.99  30077.5  33509.3  7393
    6602.71  30070.5  33552.3  7371
    6603.48  30062.5  33592.3  7343
    6604.26  30055.5  33644.3  7331
    6604.98  30046.5  33668.3  7293
    6605.75  30064.5  33762.3  7318
    6606.52  30051.5  33782.3  7282
    6607.29  30046.5  33811.3  7259
    6608.01  30034.5  33826.3  7239
    6608.78  30031.5  33849.3  7209
    6609.56  30025.5  33877.3  7198
    6610.28  30010.5  33868.3  7148
    6611.05  29996.5  33902.3  7151
    6611.82  29988.5  33915.3  7098
    6612.6  29981.5  33949.3  7084
    6613.32  29979.5  34001.3  7090
    6614.09  29969.5  34013.3  7042
    6614.87  29962.5  34039.3  7035
    6615.59  29947.5  34041.3  6993
    6616.36  29928.5  34040.3  6970
    6617.14  29920.5  34034.3  6926
    6617.86  29909.5  34036.3  6913
    6618.64  29903.5  34031.3  6894
    6619.41  29895.5  34004.3  6840
    6620.14  29875.5  33981.3  6822
    6620.91  29875.5  33965.3  6791
    6621.69  29868.5  33968.3  6812
    6622.41  29859.5  33930.3  6772
    6623.19  29842.5  33902.3  6751
    6623.91  29851.5  33905.3  6737
    6624.69  29842.5  33903.3  6729
    6625.47  29824.5  33872.3  6664
    6626.19  29816.5  33887.3  6671
    6626.97  29799.5  33866.3  6619
    6627.75  29797.5  33902.3  6632
    6628.48  29783.5  33915.3  6619
    6629.25  29767.5  33904.3  6572
    6629.98  29758.5  33941.3  6608