Folder: XASDataLibrary/data/Mn (part 2)

File: Mn2O3_rt_03.xdi
# XDI/1.0
# Column.1: energy eV
# Column.2: i0
# Column.3: itrans
# Column.4: irefer
# Beamline.name: SSRL 4-3
# Detector.I0: N2 15cm
# Detector.I1: N2 30cm
# Detector.I2: N2 15cm
# Element.edge: K
# Element.symbol: Mn
# Mono.d_spacing: 1.92009
# Mono.name: Si(220)
# Mono.notes: unfocused, detuned 10%
# Sample.formula: Mn2O3
# Sample.name: Mn2O3
# Sample.prep: powder, mixed with B(OH)3
# Sample.reference: Mn filter
# Sample.temperature: room temperature
# Scan.start_time: 1995-06-20 04:07:07
# ///
#    Note: mono d_spacing is nominal!
#     217  E XMU I0
#-------------
#   energy   i0   itrans  irefer
    6520  30542.5  27520.3  13265
    6521  30542.5  27539.3  13267
    6522  30541.5  27591.3  13311
    6523  30524.5  27525.3  13210
    6524  30516.5  27515.3  13183
    6525  30526.5  27566.3  13213
    6526  30524.5  27556.3  13173
    6527  30503.5  27503.3  13104
    6528  30498.5  27490.3  13064
    6529  30495.5  27523.3  13089
    6530  30488.5  27483.3  13021
    6531.01  30475.5  27452.3  12966
    6532.01  30461.5  27427.3  12924
    6533.01  30452.5  27406.3  12875
    6534.01  30449.5  27406.3  12851
    6535.02  30445.5  27357.3  12769
    6535.32  30440.5  27344.3  12751
    6535.67  30446.5  27338.3  12726
    6536.02  30446.5  27355.3  12739
    6536.32  30432.5  27328.3  12710
    6536.67  30425.5  27266.3  12625
    6537.02  30421.5  27255.3  12611
    6537.33  30416.5  27216.3  12560
    6537.68  30416.5  27183.3  12511
    6537.98  30412.5  27137.3  12461
    6538.33  30414.5  27076.3  12386
    6538.68  30406.5  26930.3  12216
    6538.98  30401.5  26858.3  12141
    6539.34  30401.5  26675.3  11922
    6539.69  30398.5  26517.3  11728
    6539.99  30391.5  26407.3  11608
    6540.34  30385.5  26281.3  11481
    6540.64  30380.5  26265.3  11506
    6540.99  30378.5  26170.3  11436
    6541.35  30380.5  26131.3  11427
    6541.65  30370.5  26060.3  11378
    6542  30372.5  25958.3  11257
    6542.35  30367.5  25880.3  11154
    6542.65  30362.5  25789.3  11018
    6543.01  30361.5  25733.3  10891
    6543.31  30366.5  25672.3  10734
    6543.66  30366.5  25625.3  10571
    6544.01  30364.5  25560.3  10367
    6544.32  30350.5  25485.3  10175
    6544.67  30346.5  25378.3  9926
    6545.02  30346.5  25272.3  9707
    6545.32  30341.5  25171.3  9544
    6545.68  30340.5  24956.3  9292
    6545.98  30330.5  24753.3  9118
    6546.33  30334.5  24424.3  8872
    6546.68  30334.5  24073.3  8698
    6546.99  30323.5  23692.3  8530
    6547.34  30322.5  23211.3  8366
    6547.69  30317.5  22694.3  8219
    6547.99  30320.5  22257.3  8111
    6548.35  30315.5  21764.3  8025
    6548.65  30308.5  21368.3  7964
    6549  30310.5  20921.3  7901
    6549.35  30304.5  20440.3  7787
    6549.66  30290.5  20069.3  7755
    6550.01  30289.5  19603.3  7680
    6550.31  30282.5  19226.3  7630
    6550.67  30272.5  18764.3  7531
    6551.02  30278.5  18405.3  7520
    6551.32  30273.5  18109.3  7509
    6551.68  30272.5  17721.3  7453
    6551.98  30272.5  17434.3  7461
    6552.33  30274.5  17037.3  7415
    6552.69  30267.5  16658.3  7399
    6552.99  30258.5  16313.3  7362
    6553.34  30263.5  15937.3  7351
    6553.65  30262.5  15631.3  7340
    6554  30267.5  15294.3  7333
    6554.35  30253.5  14960.3  7295
    6554.66  30247.5  14739.3  7297
    6555.01  30252.5  14491.3  7273
    6555.31  30243.5  14298.3  7241
    6555.67  30237.5  14112.3  7214
    6556.02  30238.5  13966.3  7187
    6556.32  30242.5  13932.3  7251
    6556.68  30238.5  13807.3  7194
    6556.98  30231.5  13748.3  7184
    6557.34  30226.5  13675.3  7151
    6557.69  30230.5  13651.3  7164
    6557.99  30226.5  13607.3  7146
    6558.35  30220.5  13562.3  7121
    6558.65  30226.5  13563.3  7139
    6559.01  30222.5  13527.3  7102
    6559.31  30222.5  13558.3  7125
    6559.66  30214.5  13556.3  7078
    6560.02  30215.5  13625.3  7093
    6560.32  30216.5  13681.3  7079
    6560.68  30205.5  13752.3  7065
    6560.98  30208.5  13843.3  7079
    6561.33  30197.5  13911.3  7065
    6561.69  30193.5  13963.3  7036
    6561.99  30181.5  14004.3  7030
    6562.35  30180.5  14032.3  7003
    6562.65  30179.5  14082.3  7029
    6563.01  30172.5  14097.3  7014
    6563.31  30167.5  14114.3  7011
    6563.66  30170.5  14132.3  7004
    6564.02  30159.5  14115.3  6962
    6564.32  30160.5  14161.3  6990
    6564.68  30146.5  14135.3  6925
    6564.98  30150.5  14179.3  6939
    6565.34  30152.5  14223.3  6944
    6565.64  30155.5  14264.3  6945
    6566  30150.5  14308.3  6945
    6566.35  30147.5  14315.3  6894
    6566.66  30135.5  14348.3  6887
    6567.01  30150.5  14419.3  6909
    6567.32  30136.5  14427.3  6880
    6567.67  30134.5  14462.3  6872
    6567.98  30134.5  14481.3  6856
    6568.33  30123.5  14491.3  6831
    6568.69  30119.5  14507.3  6815
    6568.99  30107.5  14531.3  6825
    6569.35  30111.5  14524.3  6788
    6569.65  30115.5  14565.3  6818
    6570.01  30110.5  14550.3  6785
    6570.31  30090.5  14536.3  6767
    6570.67  30093.5  14526.3  6746
    6571.02  30084.5  14537.3  6759
    6571.33  30076.5  14515.3  6735
    6571.69  30074.5  14496.3  6715
    6571.99  30069.5  14475.3  6699
    6572.35  30059.5  14454.3  6682
    6572.65  30055.5  14469.3  6706
    6573.01  30058.5  14450.3  6682
    6573.31  30059.5  14457.3  6688
    6573.67  30050.5  14426.3  6646
    6573.98  30044.5  14446.3  6662
    6574.33  30050.5  14446.3  6636
    6574.69  30032.5  14439.3  6609
    6574.99  30029.5  14468.3  6615
    6575.35  30032.5  14491.3  6601
    6575.65  30030.5  14527.3  6602
    6576.01  30030.5  14560.3  6583
    6576.32  30017.5  14588.3  6568
    6576.67  30031.5  14660.3  6577
    6576.98  30024.5  14730.3  6608
    6577.34  30026.5  14766.3  6570
    6577.69  30027.5  14827.3  6567
    6578  30024.5  14905.3  6591
    6578.35  30018.5  14920.3  6532
    6578.66  30007.5  14957.3  6515
    6579.02  30003.5  15006.3  6497
    6579.32  30000.5  15093.3  6536
    6579.68  30000.5  15131.3  6498
    6579.98  29994.5  15192.3  6512
    6580.75  29985.5  15296.3  6473
    6581.52  29975.5  15402.3  6454
    6582.28  29967.5  15488.3  6416
    6583.05  29969.5  15612.3  6430
    6583.81  29962.5  15710.3  6434
    6584.53  29945.5  15731.3  6379
    6585.29  29944.5  15796.3  6377
    6586.06  29950.5  15838.3  6364
    6586.82  29924.5  15814.3  6300
    6587.59  29919.5  15847.3  6303
    6588.36  29921.5  15864.3  6297
    6589.07  29899.5  15821.3  6239
    6589.84  29894.5  15820.3  6230
    6590.61  29882.5  15771.3  6178
    6591.38  29892.5  15785.3  6203
    6592.15  29877.5  15718.3  6158
    6592.86  29862.5  15646.3  6122
    6593.63  29860.5  15583.3  6109
    6594.4  29845.5  15474.3  6065
    6595.17  29836.5  15374.3  6039
    6595.89  29836.5  15285.3  6024
    6596.65  29824.5  15171.3  5989
    6597.42  29818.5  15077.3  5974
    6598.19  29814.5  15003.3  5966
    6598.96  29803.5  14904.3  5919
    6599.68  29808.5  14866.3  5930
    6600.45  29787.5  14750.3  5860
    6601.22  29788.5  14699.3  5855
    6601.99  29791.5  14655.3  5856
    6602.71  29772.5  14585.3  5818
    6603.48  29779.5  14561.3  5820
    6604.26  29764.5  14510.3  5785
    6604.98  29754.5  14478.3  5762
    6605.75  29753.5  14467.3  5751
    6606.52  29744.5  14433.3  5711
    6607.29  29729.5  14442.3  5715
    6608.01  29727.5  14421.3  5676
    6608.78  29718.5  14428.3  5664
    6609.56  29720.5  14436.3  5650
    6610.28  29716.5  14457.3  5652
    6611.05  29703.5  14450.3  5621
    6611.82  29695.5  14453.3  5598
    6612.6  29689.5  14480.3  5598
    6613.32  29676.5  14462.3  5551
    6614.09  29670.5  14485.3  5545
    6614.87  29657.5  14479.3  5509
    6615.59  29650.5  14481.3  5480
    6616.36  29638.5  14502.3  5478
    6617.14  29628.5  14492.3  5441
    6617.86  29620.5  14516.3  5445
    6618.64  29604.5  14481.3  5387
    6619.41  29597.5  14488.3  5379
    6620.14  29593.5  14495.3  5369
    6620.91  29584.5  14484.3  5339
    6621.69  29567.5  14461.3  5310
    6622.41  29567.5  14467.3  5307
    6623.19  29556.5  14468.3  5310
    6623.91  29551.5  14424.3  5262
    6624.69  29547.5  14414.3  5259
    6625.47  29526.5  14357.3  5211
    6626.19  29514.5  14330.3  5198
    6626.97  29512.5  14327.3  5214
    6627.75  29509.5  14289.3  5184
    6628.48  29497.5  14256.3  5162
    6629.25  29486.5  14220.3  5134
    6629.98  29479.5  14221.3  5142

File: Mn3O4_rt_01.xdi
# XDI/1.0
# Column.1: energy eV
# Column.2: i0
# Column.3: itrans
# Column.4: irefer
# Beamline.name: SSRL 4-3
# Detector.I0: N2 15cm
# Detector.I1: N2 30cm
# Detector.I2: N2 15cm
# Element.edge: K
# Element.symbol: Mn
# Mono.d_spacing: 1.92009
# Mono.name: Si(220)
# Mono.notes: unfocused, detuned 10%
# Sample.formula: Mn3O4
# Sample.name: Mn3O4  haussmanite
# Sample.prep: powder, mixed with B(OH)3
# Sample.reference: Mn filter
# Sample.temperature: room temperature
# Scan.start_time: 1995-06-20 04:30:44
# ///
#    Note: mono d_spacing is nominal!
#     217  E XMU I0
#-------------
#   energy   i0   itrans  irefer
    6520  29050.5  22557.3  8222
    6521  29039.5  22571.3  8223
    6522  29024.5  22566.3  8206
    6523  29015.5  22552.3  8185
    6524  29009.5  22540.3  8155
    6525  29001.5  22541.3  8147
    6526  28990.5  22534.3  8125
    6527  28989.5  22553.3  8134
    6528  28977.5  22539.3  8109
    6529  28968.5  22515.3  8075
    6530  28951.5  22504.3  8055
    6531.01  28943.5  22472.3  8011
    6532.01  28938.5  22476.3  8011
    6533.01  28926.5  22442.3  7969
    6534.01  28907.5  22406.3  7936
    6535.02  28914.5  22372.3  7894
    6535.32  28900.5  22338.3  7864
    6535.67  28899.5  22335.3  7863
    6536.02  28896.5  22303.3  7835
    6536.32  28880.5  22258.3  7802
    6536.67  28898.5  22252.3  7787
    6537.02  28894.5  22223.3  7766
    6537.33  28879.5  22153.3  7711
    6537.68  28882.5  22096.3  7666
    6537.98  28881.5  22022.3  7612
    6538.33  28877.5  21894.3  7520
    6538.68  28868.5  21717.3  7397
    6538.98  28866.5  21520.3  7268
    6539.34  28864.5  21228.3  7081
    6539.69  28862.5  20901.3  6866
    6539.99  28856.5  20707.3  6754
    6540.34  28857.5  20566.3  6646
    6540.64  28847.5  20546.3  6621
    6540.99  28850.5  20603.3  6643
    6541.35  28846.5  20603.3  6626
    6541.65  28840.5  20572.3  6608
    6542  28837.5  20436.3  6499
    6542.35  28829.5  20302.3  6408
    6542.65  28819.5  20156.3  6299
    6543.01  28818.5  19961.3  6142
    6543.31  28827.5  19816.3  6027
    6543.66  28819.5  19565.3  5830
    6544.01  28813.5  19280.3  5618
    6544.32  28808.5  19024.3  5443
    6544.67  28799.5  18672.3  5218
    6545.02  28791.5  18270.3  4976
    6545.32  28786.5  17939.3  4819
    6545.68  28785.5  17494.3  4605
    6545.98  28784.5  17123.3  4462
    6546.33  28780.5  16637.3  4262
    6546.68  28761.5  16150.3  4076
    6546.99  28772.5  15837.3  4002
    6547.34  28759.5  15422.3  3842
    6547.69  28749.5  15102.3  3741
    6547.99  28751.5  14883.3  3677
    6548.35  28746.5  14649.3  3603
    6548.65  28735.5  14466.3  3547
    6549  28727.5  14254.3  3485
    6549.35  28720.5  14065.3  3439
    6549.66  28706.5  13906.3  3408
    6550.01  28713.5  13709.3  3353
    6550.31  28702.5  13552.3  3318
    6550.67  28696.5  13377.3  3282
    6551.02  28701.5  13229.3  3259
    6551.32  28695.5  13123.3  3251
    6551.68  28692.5  12992.3  3221
    6551.98  28687.5  12928.3  3231
    6552.33  28673.5  12807.3  3173
    6552.69  28671.5  12750.3  3164
    6552.99  28670.5  12729.3  3181
    6553.34  28668.5  12659.3  3144
    6553.65  28656.5  12623.3  3145
    6554  28668.5  12572.3  3135
    6554.35  28659.5  12524.3  3136
    6554.66  28660.5  12471.3  3129
    6555.01  28662.5  12402.3  3115
    6555.31  28659.5  12338.3  3099
    6555.67  28656.5  12257.3  3081
    6556.02  28654.5  12189.3  3085
    6556.32  28649.5  12108.3  3062
    6556.68  28646.5  12029.3  3068
    6556.98  28643.5  11960.3  3063
    6557.34  28638.5  11863.3  3038
    6557.69  28632.5  11791.3  3038
    6557.99  28619.5  11725.3  3023
    6558.35  28615.5  11662.3  3000
    6558.65  28612.5  11650.3  3004
    6559.01  28619.5  11662.3  3011
    6559.31  28608.5  11673.3  3005
    6559.66  28608.5  11705.3  2990
    6560.02  28602.5  11775.3  2994
    6560.32  28600.5  11841.3  2993
    6560.68  28595.5  11921.3  2982
    6560.98  28592.5  12005.3  2989
    6561.33  28596.5  12123.3  3012
    6561.69  28580.5  12185.3  2990
    6561.99  28576.5  12262.3  3002
    6562.35  28563.5  12303.3  2970
    6562.65  28558.5  12368.3  2980
    6563.01  28561.5  12424.3  2974
    6563.31  28564.5  12483.3  2988
    6563.66  28559.5  12531.3  2992
    6564.02  28557.5  12550.3  2972
    6564.32  28544.5  12578.3  2983
    6564.68  28541.5  12565.3  2951
    6564.98  28546.5  12590.3  2966
    6565.34  28543.5  12584.3  2957
    6565.64  28543.5  12590.3  2965
    6566  28536.5  12560.3  2947
    6566.35  28538.5  12540.3  2935
    6566.66  28532.5  12528.3  2937
    6567.01  28530.5  12491.3  2913
    6567.32  28529.5  12481.3  2919
    6567.67  28517.5  12431.3  2886
    6567.98  28509.5  12423.3  2891
    6568.33  28505.5  12399.3  2883
    6568.69  28507.5  12390.3  2876
    6568.99  28501.5  12400.3  2893
    6569.35  28497.5  12370.3  2862
    6569.65  28490.5  12371.3  2862
    6570.01  28494.5  12377.3  2859
    6570.31  28492.5  12394.3  2862
    6570.67  28486.5  12410.3  2863
    6571.02  28470.5  12404.3  2835
    6571.33  28458.5  12416.3  2831
    6571.69  28477.5  12460.3  2845
    6571.99  28462.5  12474.3  2836
    6572.35  28473.5  12507.3  2838
    6572.65  28474.5  12528.3  2835
    6573.01  28458.5  12539.3  2828
    6573.31  28452.5  12550.3  2822
    6573.67  28449.5  12572.3  2823
    6573.98  28435.5  12574.3  2813
    6574.33  28440.5  12589.3  2805
    6574.69  28439.5  12606.3  2807
    6574.99  28440.5  12638.3  2820
    6575.35  28428.5  12620.3  2789
    6575.65  28422.5  12634.3  2790
    6576.01  28416.5  12644.3  2786
    6576.32  28407.5  12637.3  2766
    6576.67  28413.5  12663.3  2774
    6576.98  28400.5  12661.3  2761
    6577.34  28405.5  12692.3  2773
    6577.69  28398.5  12698.3  2759
    6578  28403.5  12724.3  2767
    6578.35  28400.5  12739.3  2757
    6578.66  28403.5  12775.3  2772
    6579.02  28396.5  12781.3  2753
    6579.32  28383.5  12788.3  2739
    6579.68  28374.5  12806.3  2731
    6579.98  28377.5  12836.3  2738
    6580.75  28363.5  12885.3  2728
    6581.52  28356.5  12936.3  2720
    6582.28  28345.5  12980.3  2710
    6583.05  28340.5  13021.3  2702
    6583.81  28328.5  13050.3  2696
    6584.53  28327.5  13082.3  2703
    6585.29  28318.5  13073.3  2679
    6586.06  28304.5  13079.3  2681
    6586.82  28300.5  13062.3  2660
    6587.59  28290.5  13051.3  2654
    6588.36  28288.5  13021.3  2627
    6589.07  28282.5  13038.3  2650
    6589.84  28272.5  13005.3  2615
    6590.61  28255.5  12989.3  2604
    6591.38  28255.5  12969.3  2584
    6592.15  28244.5  12943.3  2564
    6592.86  28237.5  12931.3  2569
    6593.63  28222.5  12884.3  2545
    6594.4  28221.5  12853.3  2541
    6595.17  28204.5  12790.3  2511
    6595.89  28198.5  12763.3  2512
    6596.65  28192.5  12712.3  2484
    6597.42  28187.5  12689.3  2481
    6598.19  28175.5  12673.3  2484
    6598.96  28171.5  12646.3  2459
    6599.68  28149.5  12628.3  2442
    6600.45  28153.5  12635.3  2438
    6601.22  28137.5  12629.3  2423
    6601.99  28136.5  12653.3  2433
    6602.71  28126.5  12640.3  2411
    6603.48  28113.5  12641.3  2404
    6604.26  28114.5  12638.3  2390
    6604.98  28108.5  12648.3  2396
    6605.75  28099.5  12643.3  2390
    6606.52  28089.5  12624.3  2366
    6607.29  28083.5  12629.3  2370
    6608.01  28062.5  12609.3  2355
    6608.78  28049.5  12585.3  2340
    6609.56  28040.5  12564.3  2320
    6610.28  28038.5  12570.3  2329
    6611.05  28042.5  12563.3  2315
    6611.82  28034.5  12568.3  2323
    6612.6  28030.5  12559.3  2310
    6613.32  28017.5  12562.3  2310
    6614.09  28000.5  12546.3  2285
    6614.87  27996.5  12552.3  2283
    6615.59  27970.5  12550.3  2277
    6616.36  27966.5  12550.3  2264
    6617.14  27952.5  12561.3  2264
    6617.86  27938.5  12554.3  2243
    6618.64  27940.5  12594.3  2266
    6619.41  27924.5  12578.3  2233
    6620.14  27917.5  12597.3  2242
    6620.91  27920.5  12610.3  2240
    6621.69  27905.5  12605.3  2219
    6622.41  27897.5  12612.3  2216
    6623.19  27884.5  12614.3  2207
    6623.91  27869.5  12612.3  2193
    6624.69  27865.5  12612.3  2178
    6625.47  27846.5  12620.3  2180
    6626.19  27839.5  12623.3  2170
    6626.97  27829.5  12626.3  2158
    6627.75  27812.5  12622.3  2144
    6628.48  27814.5  12646.3  2156
    6629.25  27800.5  12643.3  2146
    6629.98  27779.5  12635.3  2131

File: Mn3O4_rt_02.xdi
# XDI/1.0
# Column.1: energy eV
# Column.2: i0
# Column.3: itrans
# Column.4: irefer
# Beamline.name: SSRL 4-3
# Detector.I0: N2 15cm
# Detector.I1: N2 30cm
# Detector.I2: N2 15cm
# Element.edge: K
# Element.symbol: Mn
# Mono.d_spacing: 1.92009
# Mono.name: Si(220)
# Mono.notes: unfocused, detuned 10%
# Sample.formula: Mn3O4
# Sample.name: Mn3O4  haussmanite
# Sample.prep: powder, mixed with B(OH)3
# Sample.reference: Mn filter
# Sample.temperature: room temperature
# Scan.start_time: 1995-06-20 04:30:44
# ///
#    Note: mono d_spacing is nominal!
#     217  E XMU I0
#-------------
#   energy   i0   itrans  irefer
    6520  28737.5  22035.3  7653
    6521  28730.5  22051.3  7660
    6522  28728.5  22073.3  7667
    6523  28727.5  22079.3  7659
    6524  28701.5  22058.3  7633
    6525  28701.5  22063.3  7623
    6526  28691.5  22052.3  7600
    6527  28679.5  22039.3  7577
    6528  28670.5  22023.3  7551
    6529  28666.5  22033.3  7546
    6530  28659.5  22017.3  7522
    6531.01  28646.5  22010.3  7510
    6532.01  28647.5  22000.3  7487
    6533.01  28630.5  21979.3  7469
    6534.01  28630.5  21946.3  7424
    6535.02  28615.5  21888.3  7371
    6535.32  28625.5  21889.3  7367
    6535.67  28608.5  21846.3  7334
    6536.02  28605.5  21832.3  7320
    6536.32  28594.5  21789.3  7283
    6536.67  28600.5  21784.3  7280
    6537.02  28592.5  21721.3  7227
    6537.33  28590.5  21690.3  7210
    6537.68  28581.5  21601.3  7136
    6537.98  28580.5  21547.3  7108
    6538.33  28581.5  21407.3  7004
    6538.68  28574.5  21234.3  6884
    6538.98  28576.5  21058.3  6778
    6539.34  28573.5  20752.3  6577
    6539.69  28569.5  20432.3  6373
    6539.99  28569.5  20234.3  6251
    6540.34  28559.5  20103.3  6164
    6540.64  28547.5  20088.3  6140
    6540.99  28548.5  20129.3  6148
    6541.35  28546.5  20123.3  6127
    6541.65  28557.5  20097.3  6110
    6542  28553.5  19997.3  6040
    6542.35  28542.5  19841.3  5923
    6542.65  28536.5  19709.3  5832
    6543.01  28536.5  19511.3  5670
    6543.31  28543.5  19372.3  5566
    6543.66  28532.5  19107.3  5361
    6544.01  28527.5  18834.3  5160
    6544.32  28515.5  18561.3  4968
    6544.67  28514.5  18226.3  4760
    6545.02  28508.5  17855.3  4555
    6545.32  28497.5  17502.3  4373
    6545.68  28501.5  17082.3  4190
    6545.98  28498.5  16693.3  4020
    6546.33  28498.5  16220.3  3835
    6546.68  28502.5  15783.3  3693
    6546.99  28484.5  15397.3  3548
    6547.34  28482.5  15024.3  3434
    6547.69  28479.5  14704.3  3329
    6547.99  28481.5  14511.3  3292
    6548.35  28480.5  14257.3  3197
    6548.65  28499.5  14127.3  3184
    6549  28489.5  13911.3  3113
    6549.35  28475.5  13712.3  3063
    6549.66  28486.5  13568.3  3037
    6550.01  28478.5  13367.3  2984
    6550.31  28462.5  13220.3  2965
    6550.67  28471.5  13038.3  2915
    6551.02  28481.5  12927.3  2929
    6551.32  28483.5  12789.3  2884
    6551.68  28468.5  12660.3  2859
    6551.98  28464.5  12596.3  2866
    6552.33  28472.5  12501.3  2832
    6552.69  28451.5  12437.3  2822
    6552.99  28460.5  12404.3  2820
    6553.34  28464.5  12384.3  2840
    6553.65  28443.5  12305.3  2797
    6554  28430.5  12230.3  2767
    6554.35  28426.5  12173.3  2757
    6554.66  28419.5  12138.3  2768
    6555.01  28419.5  12053.3  2737
    6555.31  28418.5  11999.3  2732
    6555.67  28411.5  11927.3  2726
    6556.02  28409.5  11836.3  2704
    6556.32  28419.5  11809.3  2737
    6556.68  28407.5  11688.3  2699
    6556.98  28410.5  11646.3  2722
    6557.34  28390.5  11534.3  2687
    6557.69  28400.5  11468.3  2683
    6557.99  28393.5  11423.3  2688
    6558.35  28389.5  11357.3  2660
    6558.65  28386.5  11355.3  2678
    6559.01  28382.5  11325.3  2644
    6559.31  28372.5  11351.3  2651
    6559.66  28369.5  11390.3  2646
    6560.02  28373.5  11458.3  2646
    6560.32  28377.5  11540.3  2659
    6560.68  28370.5  11608.3  2638
    6560.98  28369.5  11716.3  2671
    6561.33  28359.5  11774.3  2639
    6561.69  28347.5  11869.3  2652
    6561.99  28356.5  11942.3  2653
    6562.35  28352.5  12022.3  2661
    6562.65  28341.5  12063.3  2649
    6563.01  28338.5  12107.3  2634
    6563.31  28339.5  12178.3  2661
    6563.66  28332.5  12194.3  2631
    6564.02  28333.5  12243.3  2646
    6564.32  28336.5  12270.3  2647
    6564.68  28335.5  12284.3  2646
    6564.98  28342.5  12308.3  2656
    6565.34  28342.5  12300.3  2646
    6565.64  28322.5  12277.3  2627
    6566  28320.5  12246.3  2607
    6566.35  28330.5  12244.3  2613
    6566.66  28328.5  12235.3  2617
    6567.01  28321.5  12203.3  2603
    6567.32  28327.5  12193.3  2602
    6567.67  28314.5  12152.3  2580
    6567.98  28320.5  12159.3  2599
    6568.33  28312.5  12117.3  2573
    6568.69  28312.5  12117.3  2578
    6568.99  28309.5  12105.3  2568
    6569.35  28290.5  12094.3  2563
    6569.65  28297.5  12116.3  2579
    6570.01  28294.5  12100.3  2555
    6570.31  28290.5  12113.3  2558
    6570.67  28291.5  12135.3  2558
    6571.02  28272.5  12129.3  2534
    6571.33  28282.5  12172.3  2557
    6571.69  28271.5  12177.3  2534
    6571.99  28287.5  12223.3  2556
    6572.35  28270.5  12230.3  2539
    6572.65  28268.5  12253.3  2541
    6573.01  28263.5  12283.3  2547
    6573.31  28255.5  12290.3  2536
    6573.67  28247.5  12291.3  2516
    6573.98  28245.5  12308.3  2515
    6574.33  28250.5  12331.3  2519
    6574.69  28245.5  12341.3  2511
    6574.99  28243.5  12358.3  2517
    6575.35  28224.5  12354.3  2498
    6575.65  28231.5  12372.3  2497
    6576.01  28224.5  12379.3  2491
    6576.32  28232.5  12404.3  2503
    6576.67  28225.5  12417.3  2502
    6576.98  28218.5  12413.3  2484
    6577.34  28207.5  12424.3  2479
    6577.69  28205.5  12440.3  2474
    6578  28208.5  12473.3  2488
    6578.35  28199.5  12472.3  2468
    6578.66  28203.5  12517.3  2489
    6579.02  28197.5  12522.3  2469
    6579.32  28190.5  12536.3  2462
    6579.68  28200.5  12585.3  2482
    6579.98  28195.5  12607.3  2481
    6580.75  28184.5  12655.3  2471
    6581.52  28181.5  12721.3  2479
    6582.28  28160.5  12753.3  2460
    6583.05  28158.5  12804.3  2468
    6583.81  28150.5  12826.3  2451
    6584.53  28144.5  12863.3  2466
    6585.29  28142.5  12850.3  2433
    6586.06  28148.5  12885.3  2459
    6586.82  28134.5  12851.3  2426
    6587.59  28127.5  12850.3  2431
    6588.36  28115.5  12805.3  2392
    6589.07  28111.5  12803.3  2392
    6589.84  28100.5  12786.3  2377
    6590.61  28082.5  12758.3  2352
    6591.38  28082.5  12758.3  2351
    6592.15  28073.5  12726.3  2328
    6592.86  28062.5  12717.3  2336
    6593.63  28065.5  12682.3  2320
    6594.4  28066.5  12645.3  2308
    6595.17  28049.5  12593.3  2290
    6595.89  28036.5  12564.3  2297
    6596.65  28024.5  12507.3  2266
    6597.42  28021.5  12491.3  2270
    6598.19  28008.5  12442.3  2234
    6598.96  28005.5  12442.3  2238
    6599.68  27994.5  12438.3  2233
    6600.45  27996.5  12434.3  2220
    6601.22  27976.5  12430.3  2215
    6601.99  27969.5  12433.3  2204
    6602.71  27974.5  12465.3  2219
    6603.48  27951.5  12444.3  2193
    6604.26  27947.5  12452.3  2195
    6604.98  27941.5  12456.3  2191
    6605.75  27931.5  12440.3  2174
    6606.52  27926.5  12435.3  2167
    6607.29  27917.5  12433.3  2166
    6608.01  27906.5  12437.3  2173
    6608.78  27901.5  12409.3  2150
    6609.56  27896.5  12405.3  2147
    6610.28  27887.5  12388.3  2133
    6611.05  27872.5  12380.3  2124
    6611.82  27862.5  12376.3  2121
    6612.6  27845.5  12355.3  2100
    6613.32  27840.5  12375.3  2114
    6614.09  27839.5  12364.3  2091
    6614.87  27833.5  12378.3  2098
    6615.59  27823.5  12374.3  2084
    6616.36  27816.5  12384.3  2082
    6617.14  27789.5  12374.3  2063
    6617.86  27787.5  12391.3  2064
    6618.64  27782.5  12407.3  2065
    6619.41  27762.5  12392.3  2038
    6620.14  27764.5  12417.3  2048
    6620.91  27748.5  12410.3  2027
    6621.69  27746.5  12437.3  2041
    6622.41  27737.5  12440.3  2033
    6623.19  27716.5  12428.3  2010
    6623.91  27717.5  12453.3  2021
    6624.69  27695.5  12431.3  1990
    6625.47  27689.5  12449.3  2001
    6626.19  27675.5  12445.3  1983
    6626.97  27670.5  12464.3  1987
    6627.75  27656.5  12468.3  1982
    6628.48  27646.5  12465.3  1973
    6629.25  27643.5  12479.3  1971
    6629.98  27624.5  12473.3  1958