Folder: XASDataLibrary/data/Mn (part 3)

File: Mn3O4_rt_03.xdi
# XDI/1.0
# Column.1: energy eV
# Column.2: i0
# Column.3: itrans
# Column.4: irefer
# Beamline.name: SSRL 4-3
# Detector.I0: N2 15cm
# Detector.I1: N2 30cm
# Detector.I2: N2 15cm
# Element.edge: K
# Element.symbol: Mn
# Mono.d_spacing: 1.92009
# Mono.name: Si(220)
# Mono.notes: unfocused, detuned 10%
# Sample.formula: Mn3O4
# Sample.name: Mn3O4  haussmanite
# Sample.prep: powder, mixed with B(OH)3
# Sample.reference: Mn filter
# Sample.temperature: room temperature
# Scan.start_time: 1995-06-20 04:30:44
# ///
#    Note: mono d_spacing is nominal!
#     217  E XMU I0
#-------------
#   energy   i0   itrans  irefer
    6520  28602.5  21790.3  7306
    6521  28602.5  21814.3  7317
    6522  28591.5  21838.3  7330
    6523  28580.5  21813.3  7294
    6524  28581.5  21817.3  7280
    6525  28567.5  21824.3  7281
    6526  28567.5  21818.3  7259
    6527  28556.5  21818.3  7248
    6528  28542.5  21790.3  7215
    6529  28535.5  21787.3  7205
    6530  28526.5  21792.3  7201
    6531.01  28523.5  21772.3  7168
    6532.01  28510.5  21752.3  7144
    6533.01  28510.5  21739.3  7121
    6534.01  28497.5  21709.3  7091
    6535.02  28485.5  21662.3  7043
    6535.32  28482.5  21637.3  7021
    6535.67  28485.5  21625.3  7007
    6536.02  28477.5  21589.3  6978
    6536.32  28478.5  21584.3  6977
    6536.67  28455.5  21501.3  6911
    6537.02  28452.5  21474.3  6892
    6537.33  28457.5  21453.3  6876
    6537.68  28453.5  21370.3  6814
    6537.98  28455.5  21333.3  6800
    6538.33  28452.5  21188.3  6687
    6538.68  28435.5  21001.3  6568
    6538.98  28448.5  20818.3  6444
    6539.34  28428.5  20508.3  6249
    6539.69  28431.5  20208.3  6064
    6539.99  28435.5  20013.3  5943
    6540.34  28430.5  19868.3  5839
    6540.64  28421.5  19876.3  5837
    6540.99  28421.5  19915.3  5844
    6541.35  28424.5  19935.3  5847
    6541.65  28416.5  19884.3  5812
    6542  28421.5  19775.3  5732
    6542.35  28408.5  19622.3  5622
    6542.65  28416.5  19512.3  5545
    6543.01  28407.5  19304.3  5386
    6543.31  28402.5  19154.3  5276
    6543.66  28406.5  18894.3  5071
    6544.01  28406.5  18638.3  4885
    6544.32  28397.5  18365.3  4703
    6544.67  28395.5  18030.3  4504
    6545.02  28397.5  17670.3  4306
    6545.32  28405.5  17350.3  4152
    6545.68  28396.5  16893.3  3932
    6545.98  28386.5  16501.3  3767
    6546.33  28391.5  16052.3  3606
    6546.68  28388.5  15585.3  3441
    6546.99  28392.5  15245.3  3340
    6547.34  28385.5  14870.3  3225
    6547.69  28373.5  14545.3  3118
    6547.99  28370.5  14338.3  3070
    6548.35  28364.5  14084.3  2977
    6548.65  28354.5  13936.3  2958
    6549  28352.5  13713.3  2881
    6549.35  28352.5  13542.3  2851
    6549.66  28344.5  13377.3  2809
    6550.01  28329.5  13170.3  2750
    6550.31  28327.5  13033.3  2735
    6550.67  28329.5  12849.3  2689
    6551.02  28324.5  12708.3  2676
    6551.32  28331.5  12602.3  2661
    6551.68  28313.5  12470.3  2635
    6551.98  28313.5  12392.3  2622
    6552.33  28318.5  12315.3  2605
    6552.69  28315.5  12259.3  2601
    6552.99  28316.5  12227.3  2607
    6553.34  28306.5  12182.3  2606
    6553.65  28302.5  12128.3  2581
    6554  28300.5  12071.3  2567
    6554.35  28299.5  12005.3  2551
    6554.66  28295.5  11968.3  2553
    6555.01  28295.5  11899.3  2542
    6555.31  28299.5  11847.3  2536
    6555.67  28288.5  11767.3  2525
    6556.02  28293.5  11698.3  2521
    6556.32  28289.5  11638.3  2525
    6556.68  28300.5  11555.3  2518
    6556.98  28300.5  11494.3  2521
    6557.34  28275.5  11389.3  2497
    6557.69  28270.5  11304.3  2478
    6557.99  28276.5  11277.3  2501
    6558.35  28265.5  11214.3  2475
    6558.65  28265.5  11192.3  2472
    6559.01  28255.5  11187.3  2466
    6559.31  28255.5  11210.3  2468
    6559.66  28246.5  11245.3  2459
    6560.02  28249.5  11311.3  2460
    6560.32  28241.5  11386.3  2470
    6560.68  28235.5  11459.3  2454
    6560.98  28234.5  11542.3  2459
    6561.33  28237.5  11641.3  2467
    6561.69  28227.5  11708.3  2447
    6561.99  28230.5  11805.3  2475
    6562.35  28224.5  11869.3  2468
    6562.65  28209.5  11910.3  2457
    6563.01  28213.5  11968.3  2459
    6563.31  28209.5  12004.3  2451
    6563.66  28203.5  12060.3  2462
    6564.02  28188.5  12066.3  2437
    6564.32  28191.5  12113.3  2462
    6564.68  28199.5  12121.3  2445
    6564.98  28199.5  12151.3  2467
    6565.34  28184.5  12118.3  2433
    6565.64  28188.5  12134.3  2453
    6566  28189.5  12103.3  2428
    6566.35  28183.5  12087.3  2425
    6566.66  28174.5  12069.3  2423
    6567.01  28169.5  12026.3  2395
    6567.32  28174.5  12023.3  2406
    6567.67  28165.5  11996.3  2395
    6567.98  28160.5  11993.3  2408
    6568.33  28162.5  11955.3  2377
    6568.69  28157.5  11954.3  2389
    6568.99  28158.5  11948.3  2386
    6569.35  28163.5  11940.3  2375
    6569.65  28159.5  11954.3  2386
    6570.01  28154.5  11946.3  2369
    6570.31  28146.5  11968.3  2382
    6570.67  28144.5  11973.3  2368
    6571.02  28132.5  12006.3  2385
    6571.33  28132.5  12005.3  2360
    6571.69  28119.5  12028.3  2361
    6571.99  28120.5  12046.3  2358
    6572.35  28119.5  12071.3  2356
    6572.65  28116.5  12097.3  2361
    6573.01  28111.5  12119.3  2358
    6573.31  28102.5  12144.3  2367
    6573.67  28098.5  12132.3  2334
    6573.98  28098.5  12174.3  2361
    6574.33  28087.5  12158.3  2328
    6574.69  28079.5  12175.3  2330
    6574.99  28082.5  12198.3  2337
    6575.35  28079.5  12201.3  2324
    6575.65  28082.5  12241.3  2352
    6576.01  28070.5  12218.3  2316
    6576.32  28070.5  12244.3  2328
    6576.67  28075.5  12258.3  2323
    6576.98  28074.5  12283.3  2338
    6577.34  28070.5  12278.3  2314
    6577.69  28056.5  12289.3  2309
    6578  28062.5  12320.3  2322
    6578.35  28067.5  12348.3  2323
    6578.66  28064.5  12370.3  2326
    6579.02  28072.5  12394.3  2320
    6579.32  28067.5  12413.3  2319
    6579.68  28062.5  12432.3  2313
    6579.98  28060.5  12449.3  2309
    6580.75  28051.5  12525.3  2324
    6581.52  28037.5  12562.3  2306
    6582.28  28030.5  12623.3  2314
    6583.05  28027.5  12654.3  2298
    6583.81  28020.5  12688.3  2294
    6584.53  28012.5  12705.3  2291
    6585.29  28009.5  12713.3  2284
    6586.06  28000.5  12719.3  2285
    6586.82  27995.5  12701.3  2272
    6587.59  27987.5  12695.3  2268
    6588.36  27980.5  12667.3  2242
    6589.07  27972.5  12668.3  2245
    6589.84  27974.5  12652.3  2227
    6590.61  27955.5  12647.3  2225
    6591.38  27959.5  12630.3  2207
    6592.15  27948.5  12619.3  2206
    6592.86  27940.5  12598.3  2199
    6593.63  27925.5  12547.3  2173
    6594.4  27923.5  12509.3  2164
    6595.17  27906.5  12457.3  2146
    6595.89  27904.5  12438.3  2152
    6596.65  27892.5  12382.3  2122
    6597.42  27891.5  12375.3  2138
    6598.19  27875.5  12340.3  2119
    6598.96  27861.5  12323.3  2113
    6599.68  27860.5  12308.3  2089
    6600.45  27853.5  12322.3  2095
    6601.22  27848.5  12311.3  2078
    6601.99  27843.5  12317.3  2071
    6602.71  27829.5  12328.3  2076
    6603.48  27818.5  12312.3  2052
    6604.26  27801.5  12316.3  2054
    6604.98  27796.5  12319.3  2051
    6605.75  27785.5  12319.3  2049
    6606.52  27786.5  12305.3  2026
    6607.29  27784.5  12312.3  2038
    6608.01  27758.5  12284.3  2019
    6608.78  27757.5  12283.3  2020
    6609.56  27754.5  12281.3  2017
    6610.28  27751.5  12265.3  2003
    6611.05  27737.5  12266.3  2004
    6611.82  27725.5  12243.3  1980
    6612.6  27724.5  12255.3  1988
    6613.32  27714.5  12247.3  1975
    6614.09  27691.5  12251.3  1978
    6614.87  27680.5  12236.3  1954
    6615.59  27668.5  12248.3  1958
    6616.36  27667.5  12259.3  1953
    6617.14  27656.5  12263.3  1946
    6617.86  27640.5  12270.3  1942
    6618.64  27632.5  12280.3  1938
    6619.41  27624.5  12292.3  1934
    6620.14  27613.5  12291.3  1924
    6620.91  27600.5  12289.3  1910
    6621.69  27591.5  12303.3  1910
    6622.41  27592.5  12323.3  1916
    6623.19  27591.5  12340.3  1920
    6623.91  27578.5  12327.3  1896
    6624.69  27559.5  12329.3  1888
    6625.47  27548.5  12326.3  1878
    6626.19  27538.5  12340.3  1881
    6626.97  27529.5  12339.3  1868
    6627.75  27512.5  12343.3  1863
    6628.48  27492.5  12353.3  1867
    6629.25  27474.5  12328.3  1834
    6629.98  27463.5  12346.3  1844

File: MnO2_rt_01.xdi
# XDI/1.0
# Column.1: energy eV
# Column.2: i0
# Column.3: itrans
# Column.4: irefer
# Beamline.name: SSRL 4-3
# Detector.I0: N2 15cm
# Detector.I1: N2 30cm
# Detector.I2: N2 15cm
# Element.edge: K
# Element.symbol: Mn
# Mono.d_spacing: 1.92009
# Mono.name: Si(220)
# Mono.notes: unfocused, detuned 10%
# Sample.formula: MnO2-pyr
# Sample.name: MnO2  pyrolusite
# Sample.prep: powder, mixed with B(OH)3
# Sample.reference: Mn filter
# Sample.temperature: room temperature
# Scan.start_time: 1995-06-20 03:12:09
# ///
#    Note: mono d_spacing is nominal!
#     217  E XMU I0
#-------------
#   energy   i0   itrans  irefer
    6520  34266.5  55318.3  42518
    6521  34258.5  55315.3  42458
    6522  34253.5  55315.3  42409
    6523  34260.5  55373.3  42443
    6524  34257.5  55399.3  42435
    6525  34267.5  55443.3  42445
    6526  34267.5  55455.3  42407
    6527  34272.5  55517.3  42451
    6528  34266.5  55541.3  42437
    6529  34266.5  55586.3  42456
    6530  34265.5  55588.3  42399
    6531.01  34269.5  55617.3  42373
    6532.01  34261.5  55617.3  42322
    6533.01  34260.5  55641.3  42297
    6534.01  34260.5  55646.3  42233
    6535.02  34267.5  55657.3  42158
    6535.32  34278.5  55710.3  42209
    6535.67  34268.5  55676.3  42126
    6536.02  34278.5  55715.3  42151
    6536.32  34258.5  55639.3  42009
    6536.67  34273.5  55699.3  42054
    6537.02  34265.5  55662.3  41957
    6537.33  34259.5  55605.3  41819
    6537.68  34270.5  55646.3  41815
    6537.98  34256.5  55563.3  41623
    6538.33  34269.5  55601.3  41587
    6538.68  34269.5  55528.3  41344
    6538.98  34260.5  55434.3  41080
    6539.34  34262.5  55357.3  40796
    6539.69  34256.5  55162.3  40375
    6539.99  34261.5  55016.3  40134
    6540.34  34256.5  54794.3  39959
    6540.64  34263.5  54673.3  39988
    6540.99  34261.5  54508.3  39960
    6541.35  34262.5  54343.3  39879
    6541.65  34265.5  54211.3  39769
    6542  34259.5  54022.3  39516
    6542.35  34267.5  53951.3  39352
    6542.65  34266.5  53890.3  39126
    6543.01  34274.5  53940.3  38917
    6543.31  34265.5  53955.3  38603
    6543.66  34272.5  54080.3  38295
    6544.01  34271.5  54168.3  37889
    6544.32  34261.5  54199.3  37479
    6544.67  34269.5  54319.3  37134
    6545.02  34261.5  54326.3  36632
    6545.32  34269.5  54413.3  36351
    6545.68  34266.5  54448.3  35926
    6545.98  34251.5  54408.3  35487
    6546.33  34265.5  54498.3  35197
    6546.68  34257.5  54469.3  34781
    6546.99  34255.5  54424.3  34454
    6547.34  34258.5  54398.3  34184
    6547.69  34257.5  54322.3  33943
    6547.99  34239.5  54167.3  33657
    6548.35  34265.5  54133.3  33587
    6548.65  34262.5  54001.3  33434
    6549  34253.5  53821.3  33265
    6549.35  34258.5  53638.3  33145
    6549.66  34257.5  53436.3  33015
    6550.01  34253.5  53166.3  32881
    6550.31  34250.5  52902.3  32768
    6550.67  34252.5  52578.3  32691
    6551.02  34250.5  52184.3  32586
    6551.32  34251.5  51844.3  32546
    6551.68  34244.5  51357.3  32446
    6551.98  34241.5  50945.3  32405
    6552.33  34252.5  50516.3  32424
    6552.69  34252.5  50083.3  32387
    6552.99  34254.5  49795.3  32385
    6553.34  34254.5  49490.3  32317
    6553.65  34252.5  49307.3  32287
    6554  34258.5  49162.3  32283
    6554.35  34258.5  49023.3  32262
    6554.66  34255.5  48884.3  32206
    6555.01  34258.5  48738.3  32189
    6555.31  34257.5  48599.3  32163
    6555.67  34266.5  48431.3  32155
    6556.02  34262.5  48214.3  32103
    6556.32  34257.5  48023.3  32081
    6556.68  34264.5  47825.3  32113
    6556.98  34256.5  47584.3  32044
    6557.34  34261.5  47351.3  32066
    6557.69  34259.5  47074.3  32038
    6557.99  34261.5  46851.3  32037
    6558.35  34257.5  46549.3  31957
    6558.65  34253.5  46354.3  31937
    6559.01  34260.5  46195.3  31968
    6559.31  34250.5  46023.3  31867
    6559.66  34268.5  46012.3  31960
    6560.02  34267.5  45968.3  31948
    6560.32  34268.5  45974.3  31971
    6560.68  34265.5  45981.3  31959
    6560.98  34265.5  45992.3  31951
    6561.33  34263.5  46019.3  31947
    6561.69  34256.5  46020.3  31914
    6561.99  34238.5  45999.3  31858
    6562.35  34247.5  46074.3  31942
    6562.65  34238.5  46074.3  31934
    6563.01  34241.5  46098.3  31942
    6563.31  34248.5  46147.3  31996
    6563.66  34243.5  46139.3  31940
    6564.02  34244.5  46191.3  31971
    6564.32  34228.5  46164.3  31863
    6564.68  34238.5  46277.3  31944
    6564.98  34224.5  46258.3  31830
    6565.34  34234.5  46363.3  31879
    6565.64  34235.5  46403.3  31858
    6566  34236.5  46468.3  31866
    6566.35  34237.5  46523.3  31890
    6566.66  34224.5  46478.3  31767
    6567.01  34228.5  46522.3  31801
    6567.32  34224.5  46518.3  31763
    6567.67  34219.5  46530.3  31749
    6567.98  34214.5  46535.3  31719
    6568.33  34218.5  46590.3  31732
    6568.69  34223.5  46654.3  31736
    6568.99  34216.5  46678.3  31699
    6569.35  34220.5  46766.3  31723
    6569.65  34220.5  46812.3  31707
    6570.01  34214.5  46846.3  31650
    6570.31  34220.5  46908.3  31682
    6570.67  34216.5  46938.3  31657
    6571.02  34223.5  47007.3  31703
    6571.33  34211.5  46974.3  31623
    6571.69  34226.5  47056.3  31725
    6571.99  34212.5  46995.3  31613
    6572.35  34220.5  47040.3  31673
    6572.65  34219.5  47027.3  31646
    6573.01  34215.5  47008.3  31621
    6573.31  34224.5  47021.3  31652
    6573.67  34218.5  46972.3  31592
    6573.98  34228.5  46998.3  31659
    6574.33  34225.5  46954.3  31620
    6574.69  34225.5  46935.3  31620
    6574.99  34217.5  46877.3  31547
    6575.35  34226.5  46896.3  31608
    6575.65  34226.5  46886.3  31609
    6576.01  34221.5  46846.3  31543
    6576.32  34226.5  46869.3  31593
    6576.67  34226.5  46864.3  31580
    6576.98  34220.5  46839.3  31537
    6577.34  34220.5  46853.3  31539
    6577.69  34223.5  46851.3  31510
    6578  34223.5  46866.3  31509
    6578.35  34221.5  46888.3  31497
    6578.66  34218.5  46904.3  31483
    6579.02  34227.5  46964.3  31497
    6579.32  34234.5  47038.3  31558
    6579.68  34226.5  47070.3  31527
    6579.98  34218.5  47070.3  31452
    6580.75  34222.5  47222.3  31499
    6581.52  34218.5  47306.3  31451
    6582.28  34224.5  47474.3  31529
    6583.05  34217.5  47572.3  31478
    6583.81  34213.5  47691.3  31450
    6584.53  34219.5  47830.3  31466
    6585.29  34212.5  47919.3  31387
    6586.06  34218.5  48073.3  31413
    6586.82  34208.5  48140.3  31314
    6587.59  34211.5  48282.3  31359
    6588.36  34198.5  48302.3  31213
    6589.07  34204.5  48422.3  31253
    6589.84  34200.5  48469.3  31207
    6590.61  34192.5  48491.3  31139
    6591.38  34192.5  48557.3  31182
    6592.15  34196.5  48556.3  31129
    6592.86  34200.5  48548.3  31092
    6593.63  34205.5  48562.3  31088
    6594.4  34193.5  48510.3  31010
    6595.17  34191.5  48500.3  30987
    6595.89  34178.5  48434.3  30860
    6596.65  34190.5  48500.3  30935
    6597.42  34186.5  48481.3  30863
    6598.19  34189.5  48525.3  30891
    6598.96  34181.5  48519.3  30832
    6599.68  34172.5  48512.3  30762
    6600.45  34172.5  48551.3  30763
    6601.22  34165.5  48545.3  30708
    6601.99  34173.5  48598.3  30748
    6602.71  34157.5  48541.3  30642
    6603.48  34167.5  48590.3  30704
    6604.26  34160.5  48551.3  30634
    6604.98  34161.5  48525.3  30601
    6605.75  34156.5  48489.3  30570
    6606.52  34147.5  48371.3  30420
    6607.29  34159.5  48426.3  30536
    6608.01  34151.5  48388.3  30501
    6608.78  34155.5  48384.3  30515
    6609.56  34150.5  48333.3  30447
    6610.28  34152.5  48335.3  30457
    6611.05  34139.5  48277.3  30363
    6611.82  34139.5  48273.3  30357
    6612.6  34127.5  48208.3  30229
    6613.32  34132.5  48241.3  30313
    6614.09  34129.5  48222.3  30294
    6614.87  34121.5  48163.3  30225
    6615.59  34119.5  48130.3  30212
    6616.36  34118.5  48091.3  30205
    6617.14  34121.5  48062.3  30225
    6617.86  34116.5  47989.3  30181
    6618.64  34101.5  47899.3  30096
    6619.41  34105.5  47865.3  30082
    6620.14  34090.5  47783.3  29974
    6620.91  34106.5  47848.3  30064
    6621.69  34096.5  47822.3  30002
    6622.41  34091.5  47849.3  30006
    6623.19  34074.5  47809.3  29884
    6623.91  34082.5  47891.3  29954
    6624.69  34071.5  47880.3  29869
    6625.47  34070.5  47932.3  29883
    6626.19  34047.5  47887.3  29754
    6626.97  34052.5  47956.3  29788
    6627.75  34047.5  47997.3  29777
    6628.48  34039.5  48004.3  29719
    6629.25  34038.5  48065.3  29744
    6629.98  34020.5  48061.3  29671

File: MnO2_rt_02.xdi
# XDI/1.0
# Column.1: energy eV
# Column.2: i0
# Column.3: itrans
# Column.4: irefer
# Beamline.name: SSRL 4-3
# Detector.I0: N2 15cm
# Detector.I1: N2 30cm
# Detector.I2: N2 15cm
# Element.edge: K
# Element.symbol: Mn
# Mono.d_spacing: 1.92009
# Mono.name: Si(220)
# Mono.notes: unfocused, detuned 10%
# Sample.formula: MnO2-pyr
# Sample.name: MnO2  pyrolusite
# Sample.prep: powder, mixed with B(OH)3
# Sample.reference: Mn filter
# Sample.temperature: room temperature
# Scan.start_time: 1995-06-20 03:12:09
# ///
#    Note: mono d_spacing is nominal!
#     217  E XMU I0
#-------------
#   energy   i0   itrans  irefer
    6520  34186.5  55161.3  41197
    6521  34175.5  55133.3  41117
    6522  34170.5  55142.3  41084
    6523  34169.5  55166.3  41073
    6524  34171.5  55204.3  41080
    6525  34183.5  55262.3  41114
    6526  34183.5  55294.3  41105
    6527  34185.5  55333.3  41115
    6528  34176.5  55312.3  41031
    6529  34188.5  55384.3  41074
    6530  34184.5  55390.3  41027
    6531.01  34183.5  55399.3  40980
    6532.01  34183.5  55436.3  40976
    6533.01  34184.5  55442.3  40913
    6534.01  34187.5  55491.3  40929
    6535.02  34179.5  55459.3  40797
    6535.32  34187.5  55493.3  40818
    6535.67  34192.5  55499.3  40790
    6536.02  34188.5  55467.3  40706
    6536.32  34187.5  55472.3  40680
    6536.67  34186.5  55471.3  40638
    6537.02  34190.5  55503.3  40643
    6537.33  34176.5  55423.3  40485
    6537.68  34189.5  55475.3  40499
    6537.98  34187.5  55431.3  40364
    6538.33  34195.5  55423.3  40258
    6538.68  34191.5  55358.3  40031
    6538.98  34182.5  55259.3  39745
    6539.34  34193.5  55188.3  39474
    6539.69  34192.5  55006.3  39073
    6539.99  34183.5  54815.3  38780
    6540.34  34191.5  54668.3  38723
    6540.64  34187.5  54498.3  38683
    6540.99  34201.5  54376.3  38707
    6541.35  34191.5  54181.3  38587
    6541.65  34192.5  54062.3  38501
    6542  34186.5  53879.3  38272
    6542.35  34195.5  53802.3  38095
    6542.65  34182.5  53704.3  37815
    6543.01  34183.5  53733.3  37584
    6543.31  34182.5  53769.3  37299
    6543.66  34188.5  53880.3  36975
    6544.01  34189.5  53980.3  36608
    6544.32  34187.5  54052.3  36264
    6544.67  34178.5  54102.3  35816
    6545.02  34179.5  54159.3  35388
    6545.32  34185.5  54225.3  35081
    6545.68  34188.5  54264.3  34667
    6545.98  34176.5  54237.3  34238
    6546.33  34194.5  54330.3  33952
    6546.68  34180.5  54267.3  33500
    6546.99  34178.5  54244.3  33219
    6547.34  34179.5  54210.3  32949
    6547.69  34180.5  54150.3  32727
    6547.99  34175.5  54060.3  32541
    6548.35  34174.5  53930.3  32334
    6548.65  34172.5  53797.3  32189
    6549  34176.5  53650.3  32061
    6549.35  34173.5  53458.3  31935
    6549.66  34166.5  53241.3  31790
    6550.01  34162.5  52965.3  31643
    6550.31  34172.5  52753.3  31608
    6550.67  34166.5  52382.3  31458
    6551.02  34176.5  52055.3  31451
    6551.32  34172.5  51674.3  31352
    6551.68  34177.5  51223.3  31317
    6551.98  34163.5  50796.3  31242
    6552.33  34172.5  50349.3  31242
    6552.69  34168.5  49892.3  31161
    6552.99  34163.5  49565.3  31096
    6553.34  34179.5  49336.3  31146
    6553.65  34169.5  49113.3  31051
    6554  34182.5  49014.3  31114
    6554.35  34171.5  48831.3  31030
    6554.66  34174.5  48705.3  30995
    6555.01  34177.5  48566.3  30989
    6555.31  34175.5  48416.3  30951
    6555.67  34183.5  48260.3  30959
    6556.02  34181.5  48052.3  30925
    6556.32  34179.5  47878.3  30922
    6556.68  34177.5  47628.3  30872
    6556.98  34185.5  47460.3  30922
    6557.34  34182.5  47180.3  30868
    6557.69  34179.5  46892.3  30826
    6557.99  34176.5  46651.3  30788
    6558.35  34177.5  46409.3  30799
    6558.65  34176.5  46217.3  30791
    6559.01  34176.5  46017.3  30760
    6559.31  34181.5  45935.3  30788
    6559.66  34183.5  45849.3  30775
    6560.02  34182.5  45811.3  30776
    6560.32  34175.5  45761.3  30709
    6560.68  34183.5  45831.3  30800
    6560.98  34170.5  45817.3  30754
    6561.33  34175.5  45865.3  30786
    6561.69  34171.5  45885.3  30773
    6561.99  34172.5  45903.3  30763
    6562.35  34193.5  45986.3  30848
    6562.65  34176.5  45923.3  30734
    6563.01  34189.5  46013.3  30850
    6563.31  34202.5  46031.3  30835
    6563.66  34196.5  46029.3  30791
    6564.02  34198.5  46077.3  30814
    6564.32  34195.5  46086.3  30772
    6564.68  34202.5  46184.3  30833
    6564.98  34197.5  46164.3  30709
    6565.34  34204.5  46304.3  30816
    6565.64  34199.5  46328.3  30771
    6566  34208.5  46425.3  30828
    6566.35  34201.5  46428.3  30762
    6566.66  34199.5  46426.3  30721
    6567.01  34206.5  46483.3  30756
    6567.32  34190.5  46421.3  30633
    6567.67  34202.5  46491.3  30699
    6567.98  34116.5  46096.3  30076
    6568.33  34191.5  46512.3  30623
    6568.69  34187.5  46542.3  30587
    6568.99  34187.5  46608.3  30603
    6569.35  34160.5  46527.3  30369
    6569.65  34177.5  46675.3  30517
    6570.01  34192.5  46812.3  30622
    6570.31  34184.5  46811.3  30544
    6570.67  34192.5  46888.3  30597
    6571.02  34189.5  46915.3  30584
    6571.33  34179.5  46878.3  30498
    6571.69  34196.5  46977.3  30613
    6571.99  34182.5  46910.3  30501
    6572.35  34202.5  47002.3  30628
    6572.65  34181.5  46905.3  30485
    6573.01  34199.5  46990.3  30621
    6573.31  34190.5  46944.3  30565
    6573.67  34200.5  46972.3  30620
    6573.98  34182.5  46868.3  30484
    6574.33  34192.5  46895.3  30558
    6574.69  34186.5  46841.3  30506
    6574.99  34182.5  46810.3  30485
    6575.35  34185.5  46805.3  30496
    6575.65  34181.5  46771.3  30461
    6576.01  34190.5  46788.3  30496
    6576.32  34188.5  46766.3  30468
    6576.67  34193.5  46787.3  30491
    6576.98  34187.5  46754.3  30437
    6577.34  34188.5  46767.3  30443
    6577.69  34180.5  46742.3  30378
    6578  34190.5  46807.3  30447
    6578.35  34194.5  46834.3  30440
    6578.66  34195.5  46853.3  30427
    6579.02  34196.5  46903.3  30436
    6579.32  34190.5  46917.3  30399
    6579.68  34184.5  46942.3  30364
    6579.98  34195.5  47032.3  30432
    6580.75  34188.5  47136.3  30415
    6581.52  34184.5  47229.3  30376
    6582.28  34189.5  47380.3  30423
    6583.05  34187.5  47500.3  30400
    6583.81  34189.5  47659.3  30434
    6584.53  34173.5  47693.3  30289
    6585.29  34186.5  47886.3  30376
    6586.06  34174.5  47943.3  30257
    6586.82  34171.5  48055.3  30239
    6587.59  34169.5  48166.3  30226
    6588.36  34166.5  48246.3  30183
    6589.07  34181.5  48363.3  30215
    6589.84  34176.5  48404.3  30152
    6590.61  34186.5  48493.3  30178
    6591.38  34181.5  48484.3  30096
    6592.15  34174.5  48490.3  30068
    6592.86  34152.5  48440.3  29997
    6593.63  34159.5  48483.3  30051
    6594.4  34142.5  48390.3  29898
    6595.17  34148.5  48439.3  29964
    6595.89  34143.5  48400.3  29894
    6596.65  34138.5  48387.3  29847
    6597.42  34132.5  48368.3  29778
    6598.19  34124.5  48347.3  29713
    6598.96  34125.5  48378.3  29702
    6599.68  34125.5  48400.3  29679
    6600.45  34119.5  48396.3  29613
    6601.22  34104.5  48407.3  29605
    6601.99  34112.5  48466.3  29649
    6602.71  34100.5  48406.3  29532
    6603.48  34109.5  48459.3  29602
    6604.26  34102.5  48430.3  29556
    6604.98  34088.5  48355.3  29451
    6605.75  34088.5  48339.3  29458
    6606.52  34081.5  48237.3  29331
    6607.29  34088.5  48283.3  29437
    6608.01  34077.5  48226.3  29372
    6608.78  34085.5  48232.3  29396
    6609.56  34082.5  48194.3  29342
    6610.28  34069.5  48127.3  29256
    6611.05  34070.5  48132.3  29260
    6611.82  34066.5  48116.3  29236
    6612.6  34063.5  48099.3  29187
    6613.32  34056.5  48079.3  29185
    6614.09  34056.5  48071.3  29185
    6614.87  34047.5  48023.3  29135
    6615.59  34037.5  47974.3  29106
    6616.36  34030.5  47890.3  29038
    6617.14  34032.5  47859.3  29047
    6617.86  34027.5  47797.3  29022
    6618.64  34025.5  47742.3  28984
    6619.41  34003.5  47665.3  28935
    6620.14  33994.5  47593.3  28844
    6620.91  34002.5  47640.3  28914
    6621.69  33999.5  47618.3  28849
    6622.41  33988.5  47600.3  28779
    6623.19  33994.5  47672.3  28825
    6623.91  33982.5  47652.3  28741
    6624.69  33987.5  47735.3  28800
    6625.47  33976.5  47727.3  28721
    6626.19  33970.5  47740.3  28679
    6626.97  33957.5  47740.3  28607
    6627.75  33962.5  47824.3  28657
    6628.48  33945.5  47817.3  28588
    6629.25  33934.5  47825.3  28538
    6629.98  33933.5  47885.3  28571