Folder: XASDataLibrary/data/Mn (part 4)

File: MnO2_rt_03.xdi
# XDI/1.0
# Column.1: energy eV
# Column.2: i0
# Column.3: itrans
# Column.4: irefer
# Beamline.name: SSRL 4-3
# Detector.I0: N2 15cm
# Detector.I1: N2 30cm
# Detector.I2: N2 15cm
# Element.edge: K
# Element.symbol: Mn
# Mono.d_spacing: 1.92009
# Mono.name: Si(220)
# Mono.notes: unfocused, detuned 10%
# Sample.formula: MnO2-pyr
# Sample.name: MnO2  pyrolusite
# Sample.prep: powder, mixed with B(OH)3
# Sample.reference: Mn filter
# Sample.temperature: room temperature
# Scan.start_time: 1995-06-20 03:12:09
# ///
#    Note: mono d_spacing is nominal!
#     217  E XMU I0
#-------------
#   energy   i0   itrans  irefer
    6520  34121.5  55043.3  39994
    6521  34118.5  55063.3  39980
    6522  34096.5  54999.3  39846
    6523  34111.5  55110.3  39963
    6524  34111.5  55138.3  39945
    6525  34121.5  55187.3  39967
    6526  34121.5  55186.3  39907
    6527  34119.5  55215.3  39898
    6528  34109.5  55201.3  39834
    6529  34114.5  55229.3  39812
    6530  34129.5  55316.3  39878
    6531.01  34121.5  55293.3  39786
    6532.01  34127.5  55361.3  39825
    6533.01  34125.5  55349.3  39752
    6534.01  34123.5  55350.3  39685
    6535.02  34130.5  55379.3  39644
    6535.32  34122.5  55344.3  39569
    6535.67  34139.5  55427.3  39654
    6536.02  34131.5  55390.3  39567
    6536.32  34133.5  55395.3  39541
    6536.67  34132.5  55386.3  39479
    6537.02  34135.5  55397.3  39452
    6537.33  34132.5  55367.3  39374
    6537.68  34122.5  55327.3  39260
    6537.98  34122.5  55300.3  39165
    6538.33  34126.5  55292.3  39048
    6538.68  34127.5  55246.3  38860
    6538.98  34119.5  55153.3  38593
    6539.34  34121.5  55054.3  38285
    6539.69  34121.5  54897.3  37936
    6539.99  34105.5  54686.3  37631
    6540.34  34114.5  54532.3  37555
    6540.64  34095.5  54296.3  37420
    6540.99  34115.5  54215.3  37505
    6541.35  34103.5  53990.3  37342
    6541.65  34108.5  53891.3  37279
    6542  34110.5  53748.3  37097
    6542.35  34121.5  53672.3  36932
    6542.65  34115.5  53613.3  36714
    6543.01  34111.5  53613.3  36443
    6543.31  34116.5  53690.3  36223
    6543.66  34110.5  53739.3  35808
    6544.01  34113.5  53858.3  35466
    6544.32  34111.5  53911.3  35100
    6544.67  34116.5  54015.3  34736
    6545.02  34113.5  54039.3  34277
    6545.32  34133.5  54135.3  33992
    6545.68  34132.5  54170.3  33570
    6545.98  34121.5  54157.3  33187
    6546.33  34131.5  54235.3  32886
    6546.68  34119.5  54176.3  32451
    6546.99  34134.5  54186.3  32197
    6547.34  34139.5  54156.3  31933
    6547.69  34132.5  54071.3  31683
    6547.99  34114.5  53914.3  31410
    6548.35  34116.5  53819.3  31269
    6548.65  34121.5  53721.3  31160
    6549  34051.5  53190.3  30495
    6549.35  34118.5  53361.3  30883
    6549.66  34111.5  53116.3  30690
    6550.01  34131.5  52948.3  30706
    6550.31  34109.5  52604.3  30483
    6550.67  34122.5  52341.3  30481
    6551.02  34122.5  51952.3  30393
    6551.32  34108.5  51538.3  30258
    6551.68  34120.5  51141.3  30287
    6551.98  34114.5  50715.3  30207
    6552.33  34124.5  50272.3  30214
    6552.69  34126.5  49858.3  30192
    6552.99  34124.5  49552.3  30168
    6553.34  34119.5  49244.3  30100
    6553.65  34115.5  49042.3  30039
    6554  34128.5  48932.3  30091
    6554.35  34120.5  48747.3  29998
    6554.66  34125.5  48659.3  30021
    6555.01  34119.5  48466.3  29938
    6555.31  34124.5  48354.3  29956
    6555.67  34130.5  48198.3  29966
    6556.02  34128.5  47984.3  29929
    6556.32  34127.5  47786.3  29880
    6556.68  34134.5  47589.3  29917
    6556.98  34123.5  47352.3  29850
    6557.34  34126.5  47091.3  29825
    6557.69  34136.5  46843.3  29837
    6557.99  34138.5  46614.3  29823
    6558.35  34134.5  46349.3  29807
    6558.65  34131.5  46137.3  29767
    6559.01  34135.5  45990.3  29802
    6559.31  34133.5  45871.3  29787
    6559.66  34138.5  45806.3  29808
    6560.02  34132.5  45752.3  29783
    6560.32  34124.5  45695.3  29715
    6560.68  34140.5  45780.3  29814
    6560.98  34123.5  45717.3  29696
    6561.33  34141.5  45832.3  29821
    6561.69  34130.5  45827.3  29774
    6561.99  34132.5  45862.3  29799
    6562.35  34134.5  45894.3  29814
    6562.65  34127.5  45890.3  29794
    6563.01  34129.5  45909.3  29806
    6563.31  34122.5  45906.3  29781
    6563.66  34134.5  45982.3  29852
    6564.02  34126.5  45973.3  29785
    6564.32  34125.5  45997.3  29764
    6564.68  34130.5  46075.3  29782
    6564.98  34129.5  46133.3  29789
    6565.34  34133.5  46209.3  29790
    6565.64  34122.5  46218.3  29735
    6566  34131.5  46312.3  29772
    6566.35  34127.5  46321.3  29713
    6566.66  34123.5  46330.3  29692
    6567.01  34117.5  46301.3  29610
    6567.32  34128.5  46372.3  29680
    6567.67  34126.5  46366.3  29632
    6567.98  34118.5  46371.3  29611
    6568.33  34124.5  46429.3  29616
    6568.69  34127.5  46493.3  29622
    6568.99  34125.5  46540.3  29621
    6569.35  34117.5  46574.3  29572
    6569.65  34115.5  46630.3  29581
    6570.01  34106.5  46649.3  29514
    6570.31  34112.5  46717.3  29548
    6570.67  34112.5  46762.3  29548
    6571.02  34121.5  46821.3  29578
    6571.33  34109.5  46775.3  29479
    6571.69  34116.5  46849.3  29564
    6571.99  34105.5  46801.3  29481
    6572.35  34118.5  46862.3  29558
    6572.65  34104.5  46780.3  29439
    6573.01  34112.5  46822.3  29508
    6573.31  34113.5  46797.3  29478
    6573.67  34122.5  46822.3  29534
    6573.98  34119.5  46791.3  29522
    6574.33  34118.5  46776.3  29518
    6574.69  34124.5  46786.3  29568
    6574.99  34115.5  46714.3  29481
    6575.35  34126.5  46741.3  29535
    6575.65  34111.5  46660.3  29442
    6576.01  34117.5  46687.3  29490
    6576.32  34093.5  46551.3  29294
    6576.67  34094.5  46609.3  29392
    6576.98  34092.5  46603.3  29387
    6577.34  34099.5  46643.3  29423
    6577.69  34099.5  46660.3  29426
    6578  34089.5  46634.3  29364
    6578.35  34093.5  46681.3  29382
    6578.66  34084.5  46649.3  29297
    6579.02  34098.5  46757.3  29393
    6579.32  34081.5  46728.3  29295
    6579.68  34090.5  46822.3  29358
    6579.98  34082.5  46820.3  29295
    6580.75  34079.5  46957.3  29321
    6581.52  34079.5  47072.3  29330
    6582.28  34068.5  47136.3  29248
    6583.05  34079.5  47326.3  29335
    6583.81  34075.5  47442.3  29298
    6584.53  34070.5  47526.3  29238
    6585.29  34070.5  47647.3  29205
    6586.06  34082.5  47824.3  29273
    6586.82  34072.5  47918.3  29231
    6587.59  34059.5  47956.3  29115
    6588.36  34069.5  48113.3  29180
    6589.07  34061.5  48162.3  29130
    6589.84  34052.5  48185.3  29044
    6590.61  34061.5  48278.3  29079
    6591.38  34058.5  48292.3  29036
    6592.15  34056.5  48295.3  28998
    6592.86  34052.5  48266.3  28934
    6593.63  34048.5  48246.3  28898
    6594.4  34049.5  48254.3  28904
    6595.17  34035.5  48191.3  28808
    6595.89  34033.5  48211.3  28822
    6596.65  34029.5  48192.3  28760
    6597.42  34016.5  48133.3  28643
    6598.19  34033.5  48240.3  28747
    6598.96  34023.5  48237.3  28705
    6599.68  34010.5  48180.3  28560
    6600.45  34024.5  48280.3  28655
    6601.22  34014.5  48249.3  28554
    6601.99  34015.5  48274.3  28562
    6602.71  34017.5  48299.3  28569
    6603.48  34014.5  48289.3  28547
    6604.26  34019.5  48299.3  28551
    6604.98  34008.5  48243.3  28489
    6605.75  34004.5  48223.3  28478
    6606.52  33992.5  48077.3  28287
    6607.29  34002.5  48145.3  28422
    6608.01  33985.5  48059.3  28319
    6608.78  33986.5  48052.3  28334
    6609.56  33990.5  48065.3  28361
    6610.28  33981.5  48003.3  28279
    6611.05  33985.5  48022.3  28308
    6611.82  33976.5  47979.3  28235
    6612.6  33978.5  47973.3  28208
    6613.32  33977.5  47954.3  28193
    6614.09  33977.5  47942.3  28190
    6614.87  33972.5  47908.3  28159
    6615.59  33965.5  47834.3  28082
    6616.36  33966.5  47829.3  28128
    6617.14  33960.5  47755.3  28087
    6617.86  33959.5  47712.3  28081
    6618.64  33952.5  47637.3  28033
    6619.41  33950.5  47604.3  28029
    6620.14  33936.5  47520.3  27920
    6620.91  33937.5  47529.3  27927
    6621.69  33934.5  47541.3  27928
    6622.41  33923.5  47518.3  27850
    6623.19  33929.5  47597.3  27907
    6623.91  33909.5  47547.3  27781
    6624.69  33906.5  47591.3  27791
    6625.47  33894.5  47576.3  27697
    6626.19  33892.5  47615.3  27695
    6626.97  33874.5  47605.3  27626
    6627.75  33875.5  47649.3  27607
    6628.48  33880.5  47722.3  27654
    6629.25  33860.5  47701.3  27563
    6629.98  33861.5  47752.3  27566

File: MnO_rt_01.xdi
# XDI/1.0
# Column.1: energy eV
# Column.2: i0
# Column.3: itrans
# Column.4: irefer
# Beamline.name: SSRL 4-3
# Detector.I0: N2 15cm
# Detector.I1: N2 30cm
# Detector.I2: N2 15cm
# Element.edge: K
# Element.symbol: Mn
# Mono.d_spacing: 1.92009
# Mono.name: Si(220)
# Mono.notes: unfocused, detuned 10%
# Sample.formula: MnO
# Sample.name: MnO
# Sample.prep: powder, mixed with B(OH)3
# Sample.reference: Mn filter
# Sample.temperature: room temperature
# Scan.start_time: 1995-06-20 02:43:21
# ///
#    Note: mono d_spacing is nominal!
#     217  E XMU I0
#-------------
#   energy   i0   itrans  irefer
    6520  31260.5  39559.3  21749
    6521  31244.5  39558.3  21716
    6522  31237.5  39580.3  21724
    6523  31219.5  39528.3  21592
    6524  31208.5  39531.3  21566
    6525  31201.5  39519.3  21505
    6526  31194.5  39532.3  21493
    6527  31185.5  39519.3  21432
    6528  31175.5  39487.3  21332
    6529  31166.5  39494.3  21299
    6530  31163.5  39482.3  21246
    6531.01  31152.5  39481.3  21203
    6532.01  31148.5  39485.3  21151
    6533.01  31127.5  39419.3  21016
    6534.01  31119.5  39405.3  20951
    6535.02  31124.5  39425.3  20912
    6535.32  31108.5  39384.3  20846
    6535.67  31105.5  39339.3  20731
    6536.02  31108.5  39367.3  20768
    6536.32  31099.5  39332.3  20694
    6536.67  31096.5  39316.3  20633
    6537.02  31094.5  39307.3  20600
    6537.33  31085.5  39276.3  20527
    6537.68  31092.5  39268.3  20455
    6537.98  31081.5  39229.3  20357
    6538.33  31073.5  39174.3  20201
    6538.68  31071.5  39095.3  19970
    6538.98  31060.5  39007.3  19726
    6539.34  31058.5  38930.3  19402
    6539.69  31057.5  38876.3  19079
    6539.99  31049.5  38829.3  18826
    6540.34  31032.5  38746.3  18579
    6540.64  31046.5  38783.3  18638
    6540.99  31034.5  38721.3  18609
    6541.35  31026.5  38696.3  18623
    6541.65  31028.5  38628.3  18514
    6542  31026.5  38517.3  18346
    6542.35  31007.5  38307.3  18042
    6542.65  31021.5  38214.3  17944
    6543.01  31019.5  37954.3  17625
    6543.31  31010.5  37675.3  17274
    6543.66  31011.5  37367.3  16917
    6544.01  31009.5  37013.3  16447
    6544.32  30995.5  36717.3  16039
    6544.67  30997.5  36411.3  15536
    6545.02  30987.5  36166.3  15102
    6545.32  30984.5  36005.3  14758
    6545.68  30979.5  35813.3  14275
    6545.98  30985.5  35766.3  14041
    6546.33  30980.5  35620.3  13563
    6546.68  30970.5  35537.3  13227
    6546.99  30973.5  35453.3  12930
    6547.34  30966.5  35367.3  12672
    6547.69  30948.5  35208.3  12353
    6547.99  30940.5  35101.3  12153
    6548.35  30931.5  35004.3  12025
    6548.65  30933.5  34893.3  11866
    6549  30922.5  34762.3  11749
    6549.35  30922.5  34602.3  11606
    6549.66  30914.5  34462.3  11529
    6550.01  30898.5  34232.3  11328
    6550.31  30903.5  34106.3  11252
    6550.67  30898.5  33960.3  11149
    6551.02  30890.5  33855.3  11053
    6551.32  30895.5  33831.3  11050
    6551.68  30888.5  33750.3  10928
    6551.98  30881.5  33725.3  10913
    6552.33  30869.5  33643.3  10803
    6552.69  30869.5  33639.3  10827
    6552.99  30866.5  33562.3  10737
    6553.34  30874.5  33571.3  10801
    6553.65  30870.5  33485.3  10702
    6554  30867.5  33434.3  10690
    6554.35  30858.5  33389.3  10661
    6554.66  30841.5  33330.3  10556
    6555.01  30839.5  33369.3  10530
    6555.31  30840.5  33420.3  10482
    6555.67  30833.5  33541.3  10474
    6556.02  30834.5  33674.3  10429
    6556.32  30825.5  33806.3  10426
    6556.68  30817.5  33947.3  10388
    6556.98  30816.5  34071.3  10361
    6557.34  30811.5  34214.3  10358
    6557.69  30815.5  34322.3  10299
    6557.99  30802.5  34405.3  10283
    6558.35  30798.5  34468.3  10242
    6558.65  30794.5  34525.3  10229
    6559.01  30791.5  34577.3  10203
    6559.31  30786.5  34674.3  10335
    6559.66  30776.5  34604.3  10152
    6560.02  30774.5  34621.3  10139
    6560.32  30779.5  34652.3  10152
    6560.68  30779.5  34684.3  10167
    6560.98  30775.5  34704.3  10177
    6561.33  30768.5  34717.3  10168
    6561.69  30764.5  34730.3  10162
    6561.99  30759.5  34743.3  10167
    6562.35  30766.5  34770.3  10172
    6562.65  30747.5  34753.3  10144
    6563.01  30753.5  34779.3  10166
    6563.31  30740.5  34748.3  10128
    6563.66  30742.5  34728.3  10089
    6564.02  30749.5  34765.3  10170
    6564.32  30741.5  34738.3  10150
    6564.68  30733.5  34687.3  10097
    6564.98  30736.5  34683.3  10115
    6565.34  30741.5  34632.3  10069
    6565.64  30738.5  34626.3  10122
    6566  30722.5  34519.3  10016
    6566.35  30720.5  34479.3  10017
    6566.66  30722.5  34450.3  10017
    6567.01  30718.5  34377.3  9958
    6567.32  30717.5  34360.3  9974
    6567.67  30709.5  34288.3  9881.01
    6567.98  30696.5  34268.3  9871
    6568.33  30693.5  34249.3  9822
    6568.69  30688.5  34287.3  9853
    6568.99  30683.5  34285.3  9805
    6569.35  30680.5  34327.3  9815
    6569.65  30674.5  34352.3  9793
    6570.01  30678.5  34415.3  9802
    6570.31  30676.5  34462.3  9814
    6570.67  30667.5  34471.3  9740
    6571.02  30663.5  34526.3  9754
    6571.33  30660.5  34563.3  9739
    6571.69  30658.5  34615.3  9756
    6571.99  30657.5  34626.3  9710
    6572.35  30649.5  34663.3  9729
    6572.65  30642.5  34652.3  9675
    6573.01  30643.5  34690.3  9699
    6573.31  30635.5  34674.3  9643
    6573.67  30628.5  34676.3  9637
    6573.98  30631.5  34726.3  9694
    6574.33  30621.5  34680.3  9613.01
    6574.69  30616.5  34688.3  9626
    6574.99  30616.5  34699.3  9630
    6575.35  30603.5  34667.3  9573
    6575.65  30607.5  34718.3  9644
    6576.01  30608.5  34694.3  9585
    6576.32  30600.5  34684.3  9572
    6576.67  30597.5  34665.3  9523
    6576.98  30585.5  34656.3  9520
    6577.34  30591.5  34657.3  9490
    6577.69  30587.5  34668.3  9493
    6578  30578.5  34653.3  9458
    6578.35  30580.5  34683.3  9484
    6578.66  30578.5  34684.3  9471
    6579.02  30561.5  34654.3  9427
    6579.32  30560.5  34670.3  9438
    6579.68  30563.5  34674.3  9421
    6579.98  30553.5  34669.3  9426
    6580.75  30542.5  34638.3  9381
    6581.52  30542.5  34677.3  9448
    6582.28  30536.5  34619.3  9343
    6583.05  30520.5  34590.3  9324
    6583.81  30523.5  34588.3  9325
    6584.53  30523.5  34618.3  9391
    6585.29  30516.5  34579.3  9316
    6586.06  30497.5  34530.3  9228
    6586.82  30494.5  34539.3  9238
    6587.59  30473.5  34460.3  9113
    6588.36  30463.5  34455.3  9140
    6589.07  30470.5  34414.3  9092
    6589.84  30464.5  34342.3  9034
    6590.61  30449.5  34239.3  8960
    6591.38  30434.5  34156.3  8920
    6592.15  30427.5  34081.3  8867
    6592.86  30421.5  34049.3  8878
    6593.63  30411.5  33996.3  8820
    6594.4  30398.5  33925.3  8714
    6595.17  30390.5  33915.3  8694
    6595.89  30369.5  33867.3  8597
    6596.65  30390.5  33948.3  8653
    6597.42  30387.5  33972.3  8636
    6598.19  30365.5  33936.3  8553
    6598.96  30353.5  33920.3  8478
    6599.68  30339.5  33926.3  8444
    6600.45  30322.5  33930.3  8388
    6601.22  30308.5  33947.3  8335
    6601.99  30313.5  34060.3  8413
    6602.71  30301.5  34067.3  8326
    6603.48  30293.5  34121.3  8313
    6604.26  30277.5  34138.3  8253
    6604.98  30267.5  34181.3  8242
    6605.75  30266.5  34210.3  8189
    6606.52  30259.5  34243.3  8165
    6607.29  30245.5  34259.3  8128
    6608.01  30233.5  34285.3  8114
    6608.78  30220.5  34280.3  8054
    6609.56  30229.5  34332.3  8061
    6610.28  30218.5  34363.3  8066
    6611.05  30200.5  34330.3  7960
    6611.82  30195.5  34382.3  7971
    6612.6  30184.5  34400.3  7918
    6613.32  30179.5  34452.3  7941
    6614.09  30176.5  34478.3  7904
    6614.87  30157.5  34483.3  7874
    6615.59  30151.5  34510.3  7871
    6616.36  30132.5  34481.3  7789
    6617.14  30129.5  34527.3  7826
    6617.86  30118.5  34493.3  7745
    6618.64  30121.5  34535.3  7791
    6619.41  30105.5  34482.3  7702
    6620.14  30094.5  34465.3  7683
    6620.91  30086.5  34433.3  7641
    6621.69  30079.5  34421.3  7630
    6622.41  30069.5  34410.3  7628
    6623.19  30060.5  34363.3  7562
    6623.91  30048.5  34350.3  7555
    6624.69  30038.5  34327.3  7512
    6625.47  30013.5  34287.3  7454
    6626.19  30001.5  34292.3  7438
    6626.97  29995.5  34320.3  7450
    6627.75  29982.5  34320.3  7425
    6628.48  29985.5  34362.3  7436
    6629.25  29963.5  34338.3  7367
    6629.98  29945.5  34319.3  7307

File: MnO_rt_02.xdi
# XDI/1.0
# Column.1: energy eV
# Column.2: i0
# Column.3: itrans
# Column.4: irefer
# Beamline.name: SSRL 4-3
# Detector.I0: N2 15cm
# Detector.I1: N2 30cm
# Detector.I2: N2 15cm
# Element.edge: K
# Element.symbol: Mn
# Mono.d_spacing: 1.92009
# Mono.name: Si(220)
# Mono.notes: unfocused, detuned 10%
# Sample.formula: MnO
# Sample.name: MnO
# Sample.prep: powder, mixed with B(OH)3
# Sample.reference: Mn filter
# Sample.temperature: room temperature
# Scan.start_time: 1995-06-20 02:43:21
# ///
#    Note: mono d_spacing is nominal!
#     217  E XMU I0
#-------------
#   energy   i0   itrans  irefer
    6520  30933.5  38654.3  20162
    6521  30932.5  38701.3  20203
    6522  30924.5  38711.3  20195
    6523  30914.5  38688.3  20124
    6524  30910.5  38709.3  20113
    6525  30907.5  38699.3  20049
    6526  30889.5  38672.3  19979
    6527  30882.5  38649.3  19900
    6528  30874.5  38677.3  19917
    6529  30870.5  38650.3  19820
    6530  30857.5  38662.3  19820
    6531.01  30842.5  38625.3  19712
    6532.01  30835.5  38627.3  19673
    6533.01  30829.5  38629.3  19632
    6534.01  30827.5  38617.3  19566
    6535.02  30814.5  38580.3  19463
    6535.32  30803.5  38532.3  19372
    6535.67  30803.5  38540.3  19364
    6536.02  30792.5  38500.3  19282
    6536.32  30792.5  38499.3  19262
    6536.67  30795.5  38480.3  19198
    6537.02  30791.5  38490.3  19190
    6537.33  30782.5  38444.3  19093
    6537.68  30779.5  38415.3  19006
    6537.98  30774.5  38368.3  18884
    6538.33  30771.5  38343.3  18780
    6538.68  30773.5  38315.3  18642
    6538.98  30756.5  38199.3  18354
    6539.34  30761.5  38161.3  18099
    6539.69  30768.5  38110.3  17770
    6539.99  30750.5  38051.3  17519
    6540.34  30761.5  38016.3  17309
    6540.64  30752.5  37995.3  17293
    6540.99  30751.5  37977.3  17321
    6541.35  30745.5  37937.3  17313
    6541.65  30740.5  37882.3  17235
    6542  30747.5  37797.3  17097
    6542.35  30731.5  37610.3  16839
    6542.65  30729.5  37425.3  16595
    6543.01  30714.5  37153.3  16278
    6543.31  30717.5  36916.3  16004
    6543.66  30707.5  36606.3  15642
    6544.01  30699.5  36240.3  15165
    6544.32  30698.5  36011.3  14867
    6544.67  30698.5  35692.3  14358
    6545.02  30694.5  35451.3  13913
    6545.32  30699.5  35290.3  13553
    6545.68  30702.5  35148.3  13160
    6545.98  30693.5  35056.3  12858
    6546.33  30682.5  34927.3  12446
    6546.68  30691.5  34867.3  12124
    6546.99  30665.5  34719.3  11759
    6547.34  30664.5  34652.3  11523
    6547.69  30669.5  34552.3  11285
    6547.99  30655.5  34444.3  11104
    6548.35  30659.5  34347.3  10942
    6548.65  30651.5  34223.3  10776
    6549  30647.5  34105.3  10677
    6549.35  30639.5  33912.3  10478
    6549.66  30638.5  33786.3  10417
    6550.01  30630.5  33575.3  10248
    6550.31  30634.5  33486.3  10240
    6550.67  30625.5  33318.3  10091
    6551.02  30620.5  33206.3  9991
    6551.32  30625.5  33167.3  9950
    6551.68  30620.5  33108.3  9870
    6551.98  30617.5  33093.3  9864
    6552.33  30621.5  33073.3  9843
    6552.69  30615.5  33022.3  9797
    6552.99  30611.5  32964.3  9737
    6553.34  30612.5  32961.3  9797
    6553.65  30613.5  32884.3  9714
    6554  30600.5  32810.3  9662
    6554.35  30604.5  32777.3  9640
    6554.66  30606.5  32803.3  9669
    6555.01  30609.5  32844.3  9642
    6555.31  30599.5  32877.3  9573
    6555.67  30597.5  33007.3  9571
    6556.02  30587.5  33102.3  9479
    6556.32  30589.5  33284.3  9550
    6556.68  30593.5  33438.3  9513
    6556.98  30582.5  33523.3  9429
    6557.34  30574.5  33657.3  9419
    6557.69  30573.5  33788.3  9410
    6557.99  30577.5  33900.3  9436
    6558.35  30558.5  33931.3  9340
    6558.65  30559.5  34006.3  9359
    6559.01  30558.5  34050.3  9331
    6559.31  30564.5  34095.3  9331
    6559.66  30555.5  34130.3  9346
    6560.02  30550.5  34127.3  9304
    6560.32  30545.5  34128.3  9288
    6560.68  30539.5  34150.3  9302
    6560.98  30540.5  34182.3  9325
    6561.33  30564.5  34267.3  9396
    6561.69  30556.5  34235.3  9317
    6561.99  30558.5  34288.3  9380
    6562.35  30550.5  34276.3  9331
    6562.65  30552.5  34308.3  9371
    6563.01  30553.5  34321.3  9371
    6563.31  30549.5  34327.3  9386
    6563.66  30541.5  34299.3  9358
    6564.02  30537.5  34266.3  9315
    6564.32  30538.5  34290.3  9379
    6564.68  30534.5  34227.3  9301
    6564.98  30537.5  34230.3  9336
    6565.34  30537.5  34176.3  9290
    6565.64  30529.5  34133.3  9282
    6566  30520.5  34061.3  9230
    6566.35  30505.5  33978.3  9173
    6566.66  30519.5  33992.3  9240
    6567.01  30508.5  33902.3  9156
    6567.32  30497.5  33851.3  9126
    6567.67  30500.5  33823.3  9107
    6567.98  30491.5  33796.3  9075
    6568.33  30484.5  33790.3  9063
    6568.69  30472.5  33770.3  9001
    6568.99  30470.5  33793.3  9002
    6569.35  30467.5  33826.3  8989
    6569.65  30450.5  33819.3  8937
    6570.01  30459.5  33898.3  8971
    6570.31  30455.5  33964.3  9013
    6570.67  30452.5  33989.3  8964
    6571.02  30446.5  34008.3  8918
    6571.33  30445.5  34086.3  8973
    6571.69  30447.5  34095.3  8903
    6571.99  30439.5  34146.3  8955
    6572.35  30438.5  34149.3  8893
    6572.65  30440.5  34209.3  8945
    6573.01  30435.5  34208.3  8909
    6573.31  30433.5  34212.3  8893
    6573.67  30423.5  34206.3  8872
    6573.98  30419.5  34185.3  8824
    6574.33  30408.5  34186.3  8828
    6574.69  30412.5  34217.3  8856
    6574.99  30395.5  34152.3  8765
    6575.35  30381.5  34145.3  8757
    6575.65  30381.5  34156.3  8760
    6576.01  30379.5  34165.3  8768
    6576.32  30386.5  34171.3  8756
    6576.67  30369.5  34132.3  8692
    6576.98  30376.5  34174.3  8752
    6577.34  30379.5  34174.3  8725
    6577.69  30363.5  34162.3  8706
    6578  30363.5  34165.3  8706
    6578.35  30347.5  34142.3  8673
    6578.66  30340.5  34114.3  8613
    6579.02  30347.5  34168.3  8672
    6579.32  30352.5  34194.3  8686
    6579.68  30354.5  34203.3  8685
    6579.98  30352.5  34212.3  8696
    6580.75  30344.5  34198.3  8672
    6581.52  30332.5  34214.3  8710
    6582.28  30334.5  34173.3  8635
    6583.05  30311.5  34130.3  8610
    6583.81  30309.5  34110.3  8583
    6584.53  30295.5  34086.3  8569
    6585.29  30294.5  34069.3  8537
    6586.06  30294.5  34090.3  8548
    6586.82  30282.5  34068.3  8504
    6587.59  30278.5  34053.3  8471
    6588.36  30261.5  34001.3  8418
    6589.07  30257.5  33951.3  8382
    6589.84  30242.5  33860.3  8325
    6590.61  30245.5  33798.3  8292
    6591.38  30225.5  33710.3  8252
    6592.15  30220.5  33639.3  8199
    6592.86  30218.5  33603.3  8186
    6593.63  30212.5  33556.3  8137
    6594.4  30204.5  33524.3  8096
    6595.17  30187.5  33486.3  8032
    6595.89  30184.5  33475.3  7983
    6596.65  30183.5  33512.3  7985
    6597.42  30167.5  33499.3  7925
    6598.19  30153.5  33488.3  7873
    6598.96  30139.5  33470.3  7799
    6599.68  30136.5  33520.3  7841
    6600.45  30120.5  33507.3  7753
    6601.22  30120.5  33563.3  7747
    6601.99  30112.5  33601.3  7711
    6602.71  30108.5  33668.3  7724
    6603.48  30100.5  33710.3  7695
    6604.26  30086.5  33729.3  7635
    6604.98  30072.5  33778.3  7640
    6605.75  30076.5  33818.3  7597
    6606.52  30063.5  33838.3  7561
    6607.29  30057.5  33894.3  7583
    6608.01  30048.5  33897.3  7533
    6608.78  30036.5  33908.3  7497
    6609.56  30037.5  33926.3  7460
    6610.28  30014.5  33938.3  7453
    6611.05  30010.5  33957.3  7409
    6611.82  30001.5  33983.3  7383
    6612.6  29997.5  34034.3  7387
    6613.32  29995.5  34068.3  7365
    6614.09  29985.5  34110.3  7369
    6614.87  29965.5  34086.3  7285
    6615.59  29953.5  34103.3  7275
    6616.36  29945.5  34105.3  7230
    6617.14  29965.5  34177.3  7274
    6617.86  29951.5  34149.3  7219
    6618.64  29949.5  34156.3  7200
    6619.41  29936.5  34137.3  7178
    6620.14  29931.5  34119.3  7149
    6620.91  29923.5  34102.3  7131
    6621.69  29911.5  34073.3  7097
    6622.41  29898.5  34025.3  7053
    6623.19  29900.5  34039.3  7078
    6623.91  29881.5  33982.3  7000
    6624.69  29857.5  33947.3  6960
    6625.47  29865.5  33977.3  6970
    6626.19  29840.5  33971.3  6963
    6626.97  29830.5  33974.3  6933
    6627.75  29828.5  34006.3  6940
    6628.48  29808.5  33992.3  6901
    6629.25  29801.5  33996.3  6852
    6629.98  29785.5  34005.3  6851