Folder: XASDataLibrary/data/Mn

Note: README
The XAS Data Library is designed to hold X-ray Absorption Spectra (EXAFS
and XANES) using an SQLite database, with array data encoded using JSON.
The principle goal for the library is as a proposed standard for storing
and exchanging XAS data. The implementation here is intended for initial
reference and comments. 

The idea is provide a format and set of tools for managing Libraries of
XAFS Data, and to be able to share these libraries between different
researchers and different analysis programs.  As the the base format of the
library will be created with SQLite, the SQL syntax and any third party
software that can use SQL and SQLite will be able to explore the data in
the format.  In addition, reference implementations of programmatically
interecting with the library will be provided.  

Ideally, a stand-alone GUI Data Browser and an on-line Library will be
built upon such a format.

See http://xafs.org/XasDataLibrary for additional information.


--Matt Newville  18-Feb-2011

File: Mn2O3_rt_01.xdi
# XDI/1.0
# Column.1: energy eV
# Column.2: i0
# Column.3: itrans
# Column.4: irefer
# Beamline.name: SSRL 4-3
# Detector.I0: N2 15cm
# Detector.I1: N2 30cm
# Detector.I2: N2 15cm
# Element.edge: K
# Element.symbol: Mn
# Mono.d_spacing: 1.92009
# Mono.name: Si(220)
# Mono.notes: unfocused, detuned 10%
# Sample.formula: Mn2O3
# Sample.name: Mn2O3
# Sample.prep: powder, mixed with B(OH)3
# Sample.reference: Mn filter
# Sample.temperature: room temperature
# Scan.start_time: 1995-06-20 04:07:07
# ///
#    Note: mono d_spacing is nominal!
#     217  E XMU I0
#-------------
#   energy   i0   itrans  irefer
    6520  31063.5  28860.3  15284
    6521  31061.5  28892.3  15301
    6522  31053.5  28912.3  15307
    6523  31041.5  28890.3  15264
    6524  31035.5  28876.3  15225
    6525  31025.5  28884.3  15222
    6526  31020.5  28864.3  15165
    6527  31017.5  28887.3  15175
    6528  31005.5  28828.3  15079
    6529  31000.5  28829.3  15057
    6530  30996.5  28820.3  15024
    6531.01  30992.5  28796.3  14971
    6532.01  30980.5  28795.3  14960
    6533.01  30962.5  28723.3  14843
    6534.01  30955.5  28709.3  14809
    6535.02  30952.5  28692.3  14760
    6535.32  30943.5  28657.3  14711
    6535.67  30948.5  28683.3  14732
    6536.02  30954.5  28681.3  14712
    6536.32  30946.5  28679.3  14715
    6536.67  30937.5  28598.3  14603
    6537.02  30923.5  28583.3  14587
    6537.33  30921.5  28558.3  14550
    6537.68  30918.5  28502.3  14470
    6537.98  30908.5  28461.3  14433
    6538.33  30899.5  28330.3  14269
    6538.68  30896.5  28241.3  14171
    6538.98  30888.5  28112.3  14020
    6539.34  30889.5  27978.3  13859
    6539.69  30890.5  27829.3  13666
    6539.99  30883.5  27702.3  13516
    6540.34  30883.5  27612.3  13427
    6540.64  30875.5  27530.3  13361
    6540.99  30873.5  27490.3  13358
    6541.35  30864.5  27401.3  13296
    6541.65  30860.5  27345.3  13256
    6542  30848.5  27233.3  13140
    6542.35  30853.5  27163.3  13039
    6542.65  30857.5  27138.3  12980
    6543.01  30845.5  27004.3  12748
    6543.31  30843.5  26984.3  12651
    6543.66  30844.5  26898.3  12424
    6544.01  30840.5  26849.3  12230
    6544.32  30831.5  26772.3  12028
    6544.67  30825.5  26648.3  11746
    6545.02  30821.5  26547.3  11536
    6545.32  30824.5  26428.3  11342
    6545.68  30827.5  26239.3  11108
    6545.98  30817.5  26019.3  10903
    6546.33  30805.5  25677.3  10642
    6546.68  30816.5  25341.3  10486
    6546.99  30803.5  24941.3  10291
    6547.34  30812.5  24480.3  10147
    6547.69  30807.5  23937.3  9970
    6547.99  30805.5  23535.3  9914
    6548.35  30816.5  23044.3  9820
    6548.65  30781.5  22557.3  9660
    6549  30792.5  22114.3  9600
    6549.35  30774.5  21627.3  9493
    6549.66  30777.5  21266.3  9470
    6550.01  30772.5  20777.3  9364
    6550.31  30766.5  20420.3  9354
    6550.67  30763.5  19974.3  9259
    6551.02  30764.5  19605.3  9245
    6551.32  30746.5  19254.3  9177
    6551.68  30756.5  18914.3  9178
    6551.98  30746.5  18598.3  9165
    6552.33  30748.5  18181.3  9087
    6552.69  30740.5  17794.3  9082
    6552.99  30741.5  17459.3  9049
    6553.34  30745.5  17092.3  9058
    6553.65  30739.5  16769.3  9033
    6554  30735.5  16401.3  8990
    6554.35  30731.5  16089.3  8980
    6554.66  30717.5  15812.3  8917
    6555.01  30722.5  15591.3  8931
    6555.31  30722.5  15419.3  8922
    6555.67  30704.5  15184.3  8836
    6556.02  30704.5  15043.3  8824
    6556.32  30705.5  14966.3  8836
    6556.68  30706.5  14899.3  8851
    6556.98  30692.5  14804.3  8799
    6557.34  30694.5  14743.3  8776
    6557.69  30691.5  14696.3  8763
    6557.99  30681.5  14659.3  8755
    6558.35  30678.5  14603.3  8710
    6558.65  30668.5  14588.3  8720
    6559.01  30674.5  14551.3  8674
    6559.31  30675.5  14593.3  8711
    6559.66  30653.5  14550.3  8613
    6560.02  30654.5  14614.3  8619
    6560.32  30656.5  14710.3  8657
    6560.68  30661.5  14770.3  8617
    6560.98  30644.5  14818.3  8591
    6561.33  30644.5  14913.3  8601
    6561.69  30647.5  15003.3  8616
    6561.99  30636.5  15021.3  8574
    6562.35  30628.5  15074.3  8587
    6562.65  30621.5  15076.3  8547
    6563.01  30612.5  15076.3  8517
    6563.31  30623.5  15123.3  8545
    6563.66  30613.5  15112.3  8506
    6564.02  30602.5  15135.3  8512
    6564.32  30601.5  15123.3  8468
    6564.68  30597.5  15174.3  8493
    6564.98  30588.5  15179.3  8461
    6565.34  30595.5  15224.3  8469
    6565.64  30584.5  15242.3  8444
    6566  30585.5  15259.3  8405
    6566.35  30581.5  15302.3  8400
    6566.66  30582.5  15325.3  8374
    6567.01  30580.5  15378.3  8379
    6567.32  30566.5  15384.3  8342
    6567.67  30569.5  15414.3  8326
    6567.98  30559.5  15434.3  8316
    6568.33  30566.5  15475.3  8318
    6568.69  30552.5  15482.3  8296
    6568.99  30550.5  15498.3  8285
    6569.35  30546.5  15515.3  8283
    6569.65  30536.5  15485.3  8223
    6570.01  30528.5  15489.3  8216
    6570.31  30530.5  15508.3  8228
    6570.67  30522.5  15459.3  8160
    6571.02  30518.5  15460.3  8164
    6571.33  30509.5  15449.3  8155
    6571.69  30518.5  15479.3  8194
    6571.99  30497.5  15410.3  8118
    6572.35  30500.5  15405.3  8114
    6572.65  30498.5  15396.3  8108
    6573.01  30485.5  15357.3  8060
    6573.31  30494.5  15416.3  8136
    6573.67  30491.5  15358.3  8054
    6573.98  30488.5  15385.3  8076
    6574.33  30481.5  15350.3  8008
    6574.69  30481.5  15400.3  8049
    6574.99  30468.5  15403.3  8020
    6575.35  30468.5  15425.3  8000
    6575.65  30462.5  15458.3  8004
    6576.01  30452.5  15453.3  7936
    6576.32  30446.5  15508.3  7952
    6576.67  30439.5  15517.3  7891
    6576.98  30431.5  15567.3  7895
    6577.34  30441.5  15641.3  7903
    6577.69  30441.5  15704.3  7905
    6578  30440.5  15758.3  7899
    6578.35  30428.5  15772.3  7835
    6578.66  30420.5  15844.3  7860
    6579.02  30420.5  15870.3  7805
    6579.32  30413.5  15931.3  7816
    6579.68  30419.5  15998.3  7811
    6579.98  30416.5  16058.3  7823
    6580.75  30392.5  16145.3  7763
    6581.52  30382.5  16250.3  7731
    6582.28  30381.5  16382.3  7743
    6583.05  30375.5  16448.3  7688
    6583.81  30370.5  16535.3  7677
    6584.53  30360.5  16581.3  7648
    6585.29  30344.5  16630.3  7637
    6586.06  30335.5  16655.3  7604
    6586.82  30320.5  16660.3  7567
    6587.59  30310.5  16655.3  7526
    6588.36  30299.5  16647.3  7489
    6589.07  30297.5  16652.3  7480
    6589.84  30287.5  16602.3  7410
    6590.61  30276.5  16576.3  7386
    6591.38  30274.5  16546.3  7360
    6592.15  30264.5  16510.3  7358
    6592.86  30254.5  16435.3  7310
    6593.63  30237.5  16324.3  7248
    6594.4  30237.5  16247.3  7232
    6595.17  30231.5  16152.3  7204
    6595.89  30221.5  16038.3  7165
    6596.65  30208.5  15911.3  7112
    6597.42  30206.5  15827.3  7108
    6598.19  30190.5  15701.3  7040
    6598.96  30184.5  15654.3  7058
    6599.68  30173.5  15576.3  7023
    6600.45  30166.5  15497.3  6989
    6601.22  30155.5  15413.3  6952
    6601.99  30153.5  15350.3  6930
    6602.71  30153.5  15320.3  6939
    6603.48  30140.5  15234.3  6870
    6604.26  30129.5  15209.3  6868
    6604.98  30113.5  15160.3  6822
    6605.75  30110.5  15156.3  6823
    6606.52  30095.5  15099.3  6756
    6607.29  30098.5  15133.3  6782
    6608.01  30082.5  15124.3  6762
    6608.78  30079.5  15106.3  6719
    6609.56  30059.5  15080.3  6674
    6610.28  30054.5  15086.3  6653
    6611.05  30053.5  15110.3  6653
    6611.82  30046.5  15099.3  6601
    6612.6  30043.5  15128.3  6601
    6613.32  30022.5  15094.3  6538
    6614.09  30024.5  15113.3  6522
    6614.87  30018.5  15144.3  6530
    6615.59  30000.5  15128.3  6480
    6616.36  29994.5  15146.3  6473
    6617.14  29979.5  15135.3  6428
    6617.86  29970.5  15145.3  6423
    6618.64  29956.5  15117.3  6364
    6619.41  29953.5  15135.3  6368
    6620.14  29946.5  15140.3  6359
    6620.91  29941.5  15123.3  6325
    6621.69  29927.5  15121.3  6311
    6622.41  29916.5  15082.3  6261
    6623.19  29899.5  15063.3  6237
    6623.91  29891.5  15030.3  6202
    6624.69  29902.5  15038.3  6212
    6625.47  29882.5  14985.3  6169
    6626.19  29871.5  14954.3  6151
    6626.97  29849.5  14911.3  6120
    6627.75  29849.5  14871.3  6090
    6628.48  29843.5  14873.3  6107
    6629.25  29829.5  14823.3  6060
    6629.98  29820.5  14820.3  6066

File: Mn2O3_rt_02.xdi
# XDI/1.0
# Column.1: energy eV
# Column.2: i0
# Column.3: itrans
# Column.4: irefer
# Beamline.name: SSRL 4-3
# Detector.I0: N2 15cm
# Detector.I1: N2 30cm
# Detector.I2: N2 15cm
# Element.edge: K
# Element.symbol: Mn
# Mono.d_spacing: 1.92009
# Mono.name: Si(220)
# Mono.notes: unfocused, detuned 10%
# Sample.formula: Mn2O3
# Sample.name: Mn2O3
# Sample.prep: powder, mixed with B(OH)3
# Sample.reference: Mn filter
# Sample.temperature: room temperature
# Scan.start_time: 1995-06-20 04:07:07
# ///
#    Note: mono d_spacing is nominal!
#     217  E XMU I0
#-------------
#   energy   i0   itrans  irefer
    6520  30732.5  28067.3  14136
    6521  30725.5  28078.3  14137
    6522  30714.5  28063.3  14102
    6523  30702.5  28058.3  14080
    6524  30702.5  28051.3  14046
    6525  30691.5  28043.3  14024
    6526  30689.5  28014.3  13957
    6527  30666.5  27974.3  13894
    6528  30666.5  27978.3  13873
    6529  30653.5  27939.3  13810
    6530  30659.5  27969.3  13824
    6531.01  30649.5  27938.3  13764
    6532.01  30635.5  27909.3  13711
    6533.01  30627.5  27889.3  13668
    6534.01  30622.5  27875.3  13632
    6535.02  30623.5  27850.3  13569
    6535.32  30626.5  27859.3  13572
    6535.67  30627.5  27845.3  13538
    6536.02  30604.5  27794.3  13482
    6536.32  30600.5  27767.3  13444
    6536.67  30593.5  27727.3  13389
    6537.02  30583.5  27700.3  13353
    6537.33  30592.5  27719.3  13363
    6537.68  30594.5  27682.3  13318
    6537.98  30585.5  27603.3  13221
    6538.33  30579.5  27530.3  13143
    6538.68  30579.5  27405.3  12989
    6538.98  30579.5  27298.3  12865
    6539.34  30577.5  27157.3  12694
    6539.69  30575.5  26989.3  12487
    6539.99  30574.5  26876.3  12355
    6540.34  30563.5  26758.3  12241
    6540.64  30563.5  26729.3  12241
    6540.99  30555.5  26640.3  12185
    6541.35  30560.5  26600.3  12175
    6541.65  30563.5  26538.3  12119
    6542  30565.5  26482.3  12063
    6542.35  30562.5  26378.3  11922
    6542.65  30552.5  26287.3  11788
    6543.01  30560.5  26232.3  11650
    6543.31  30546.5  26158.3  11501
    6543.66  30539.5  26061.3  11263
    6544.01  30541.5  26012.3  11076
    6544.32  30543.5  25977.3  10912
    6544.67  30523.5  25807.3  10591
    6545.02  30520.5  25709.3  10386
    6545.32  30524.5  25603.3  10204
    6545.68  30524.5  25424.3  9998
    6545.98  30514.5  25200.3  9794
    6546.33  30509.5  24869.3  9553
    6546.68  30514.5  24526.3  9384
    6546.99  30508.5  24133.3  9205
    6547.34  30502.5  23639.3  9029
    6547.69  30501.5  23105.3  8861
    6547.99  30502.5  22706.3  8808
    6548.35  30508.5  22205.3  8694
    6548.65  30490.5  21810.3  8644
    6549  30487.5  21309.3  8514
    6549.35  30493.5  20887.3  8472
    6549.66  30479.5  20494.3  8414
    6550.01  30479.5  19996.3  8298
    6550.31  30474.5  19665.3  8305
    6550.67  30479.5  19223.3  8221
    6551.02  30472.5  18844.3  8199
    6551.32  30477.5  18549.3  8182
    6551.68  30470.5  18156.3  8124
    6551.98  30468.5  17858.3  8117
    6552.33  30451.5  17420.3  8033
    6552.69  30450.5  17044.3  8025
    6552.99  30446.5  16697.3  7984
    6553.34  30445.5  16312.3  7971
    6553.65  30451.5  16033.3  7992
    6554  30454.5  15673.3  7956
    6554.35  30443.5  15352.3  7934
    6554.66  30450.5  15129.3  7928
    6555.01  30446.5  14871.3  7899
    6555.31  30446.5  14690.3  7873
    6555.67  30445.5  14523.3  7867
    6556.02  30442.5  14378.3  7850
    6556.32  30438.5  14274.3  7824
    6556.68  30432.5  14188.3  7819
    6556.98  30422.5  14104.3  7781
    6557.34  30419.5  14050.3  7763
    6557.69  30425.5  14025.3  7776
    6557.99  30417.5  13974.3  7745
    6558.35  30412.5  13918.3  7709
    6558.65  30421.5  13938.3  7748
    6559.01  30410.5  13909.3  7727
    6559.31  30397.5  13881.3  7680
    6559.66  30392.5  13923.3  7687
    6560.02  30395.5  13969.3  7669
    6560.32  30388.5  14049.3  7691
    6560.68  30382.5  14088.3  7634
    6560.98  30381.5  14159.3  7626
    6561.33  30380.5  14253.3  7635
    6561.69  30386.5  14335.3  7639
    6561.99  30381.5  14394.3  7653
    6562.35  30369.5  14389.3  7591
    6562.65  30365.5  14422.3  7594
    6563.01  30361.5  14429.3  7570
    6563.31  30364.5  14464.3  7588
    6563.66  30364.5  14474.3  7571
    6564.02  30352.5  14461.3  7532
    6564.32  30349.5  14501.3  7557
    6564.68  30348.5  14493.3  7504
    6564.98  30357.5  14572.3  7563
    6565.34  30362.5  14583.3  7523
    6565.64  30358.5  14622.3  7528
    6566  30354.5  14642.3  7495
    6566.35  30345.5  14657.3  7456
    6566.66  30343.5  14724.3  7487
    6567.01  30342.5  14736.3  7445
    6567.32  30342.5  14793.3  7469
    6567.67  30340.5  14816.3  7440
    6567.98  30341.5  14865.3  7462
    6568.33  30315.5  14811.3  7361
    6568.69  30328.5  14861.3  7384
    6568.99  30330.5  14910.3  7419
    6569.35  30321.5  14891.3  7371
    6569.65  30314.5  14936.3  7409
    6570.01  30314.5  14900.3  7344
    6570.31  30299.5  14890.3  7327
    6570.67  30308.5  14899.3  7328
    6571.02  30299.5  14881.3  7307
    6571.33  30291.5  14865.3  7287
    6571.69  30287.5  14837.3  7258
    6571.99  30298.5  14884.3  7315
    6572.35  30285.5  14821.3  7248
    6572.65  30282.5  14835.3  7277
    6573.01  30276.5  14796.3  7225
    6573.31  30261.5  14789.3  7226
    6573.67  30264.5  14779.3  7204
    6573.98  30252.5  14767.3  7181
    6574.33  30261.5  14779.3  7171
    6574.69  30260.5  14819.3  7189
    6574.99  30241.5  14819.3  7170
    6575.35  30249.5  14840.3  7145
    6575.65  30241.5  14898.3  7175
    6576.01  30248.5  14917.3  7136
    6576.32  30251.5  14969.3  7150
    6576.67  30244.5  14992.3  7107
    6576.98  30245.5  15052.3  7120
    6577.34  30241.5  15091.3  7089
    6577.69  30239.5  15154.3  7083
    6578  30228.5  15197.3  7076
    6578.35  30234.5  15240.3  7046
    6578.66  30230.5  15322.3  7081
    6579.02  30234.5  15361.3  7044
    6579.32  30231.5  15423.3  7049
    6579.68  30222.5  15447.3  7003
    6579.98  30226.5  15540.3  7049
    6580.75  30220.5  15663.3  7031
    6581.52  30208.5  15755.3  6987
    6582.28  30197.5  15880.3  6997
    6583.05  30185.5  15931.3  6929
    6583.81  30176.5  16033.3  6938
    6584.53  30167.5  16079.3  6906
    6585.29  30162.5  16107.3  6861
    6586.06  30148.5  16130.3  6830
    6586.82  30143.5  16131.3  6786
    6587.59  30149.5  16192.3  6819
    6588.36  30135.5  16163.3  6762
    6589.07  30126.5  16176.3  6765
    6589.84  30119.5  16142.3  6714
    6590.61  30117.5  16142.3  6717
    6591.38  30105.5  16089.3  6671
    6592.15  30096.5  16026.3  6628
    6592.86  30091.5  16001.3  6645
    6593.63  30083.5  15918.3  6609
    6594.4  30083.5  15843.3  6596
    6595.17  30065.5  15716.3  6541
    6595.89  30061.5  15622.3  6522
    6596.65  30049.5  15521.3  6503
    6597.42  30046.5  15413.3  6464
    6598.19  30022.5  15289.3  6403
    6598.96  30018.5  15205.3  6372
    6599.68  30004.5  15139.3  6359
    6600.45  29998.5  15074.3  6345
    6601.22  29984.5  14975.3  6290
    6601.99  29994.5  14961.3  6324
    6602.71  29985.5  14887.3  6280
    6603.48  29969.5  14835.3  6253
    6604.26  29960.5  14794.3  6229
    6604.98  29955.5  14781.3  6226
    6605.75  29953.5  14768.3  6214
    6606.52  29945.5  14709.3  6143
    6607.29  29949.5  14773.3  6205
    6608.01  29940.5  14743.3  6155
    6608.78  29925.5  14723.3  6118
    6609.56  29911.5  14701.3  6072
    6610.28  29906.5  14717.3  6066
    6611.05  29903.5  14730.3  6052
    6611.82  29892.5  14741.3  6037
    6612.6  29858.5  14718.3  5988
    6613.32  29851.5  14713.3  5949
    6614.09  29842.5  14730.3  5941
    6614.87  29838.5  14738.3  5917
    6615.59  29832.5  14771.3  5930
    6616.36  29821.5  14760.3  5884
    6617.14  29814.5  14766.3  5863
    6617.86  29806.5  14769.3  5845
    6618.64  29794.5  14752.3  5805
    6619.41  29785.5  14773.3  5812
    6620.14  29762.5  14729.3  5744
    6620.91  29764.5  14743.3  5746
    6621.69  29754.5  14720.3  5707
    6622.41  29750.5  14735.3  5720
    6623.19  29733.5  14689.3  5669
    6623.91  29729.5  14702.3  5688
    6624.69  29708.5  14642.3  5631
    6625.47  29698.5  14617.3  5619
    6626.19  29682.5  14575.3  5589
    6626.97  29679.5  14542.3  5566
    6627.75  29665.5  14513.3  5553
    6628.48  29650.5  14470.3  5521
    6629.25  29635.5  14450.3  5514
    6629.98  29636.5  14447.3  5511