Folder: XASDataLibrary/data/Ni (part 3)

File: Ni_metal_rt_02.xdi
# XDI/1.0
# Column.1: energy eV
# Column.2: i0
# Column.3: itrans
# Beamline.name: APS 13-ID-C
# Beamline.notes: vert slits = 0.3mm
# Detector.I0: N2 10cm
# Detector.I1: N2 10cm
# Element.edge: K
# Element.symbol: Ni
# Mono.d_spacing: 3.13550
# Mono.name: Si(111)
# Mono.notes: focussed, detuned 50%
# Sample.formula: Ni
# Sample.name: Ni foil  Room Temperature
# Sample.prep: metal foil
# Sample.reference: none
# Sample.temperature: Room Temperature
# Scan.start_time: 2001-06-26 21:58:18
# ///
#    Note: mono d_spacing is nominal!
#     data from ni_foil.001
#     418 E XMU I0
#-------------
#   energy   i0   itrans
    8133  156032  508820
    8153  128784  422729
    8173  117445  388217
    8193  116769  388856
    8213  116587  391436
    8233  116118  392733
    8253  116781  394427
    8273  116202  398288
    8293  115151  396827
    8313  115760  398596
    8314  119490  411266
    8315  119845  412312
    8316  120740  415020
    8317  120387  413462
    8318  120258  412535
    8319  120278  412191
    8320  119020  407275
    8321  120304  410791
    8322  120215  409580
    8323  120134  408149
    8324  120240  407165
    8325  119740  403496
    8326  120014  401838
    8327  120093  398373
    8328  119727  391705
    8329  119556  380924
    8330  118368  352422
    8331  116766  294731
    8332  110815  224157
    8333  108023  180964
    8334  132853  194617
    8335  136359  187167
    8336  125296  163580
    8337  121250  146520
    8338  120280  132315
    8339  120033  121753
    8340  119719  112352
    8341  120660  101672
    8342  120143  87713.1
    8343  120374  73496.1
    8344  120094  60867.1
    8345  120287  50039.1
    8346  120284  42139.1
    8347  120147  37714.1
    8348  120378  36276.1
    8349  120189  36239.1
    8350  120143  37160.1
    8351  120543  38628.1
    8352  120215  39348.1
    8353  120398  39020.1
    8354  120282  37083.1
    8355  119358  34307.1
    8356  120438  32811.1
    8357  120507  32456.1
    8358  120564  33228.1
    8359.99  120087  35248.1
    8362.05  120082  37240.1
    8364.19  120002  40121.1
    8366.41  120127  41553.1
    8368.7  120299  41998.1
    8371.07  120699  40995.1
    8373.52  119931  37615.1
    8376.04  120388  34071.1
    8378.64  119797  30332.1
    8381.31  119600  28966.1
    8384.06  119453  30671.1
    8386.88  120274  34689.1
    8389.78  119985  38507.1
    8392.76  120167  41423.1
    8395.82  120563  42303.1
    8398.95  120012  42082.1
    8402.15  119751  42805.1
    8405.43  119698  42073.1
    8408.79  118745  40308.1
    8412.23  120054  39630.1
    8415.74  119706  37384.1
    8419.32  120094  35517.1
    8422.99  119974  33289.1
    8426.72  119719  30632.1
    8430.54  119269  29255.1
    8434.43  119727  30628.1
    8438.4  120005  33668.1
    8442.44  114176  35420.1
    8446.56  121081  40126.1
    8450.75  120081  43036.1
    8455.02  119323  46965.1
    8459.37  120018  48493.1
    8463.79  120137  46556.1
    8468.29  119723  42878.1
    8472.87  120339  40824.1
    8477.52  119850  41036.1
    8482.25  120135  41326.1
    8487.05  120169  37122.1
    8491.93  120194  32555.1
    8496.89  120128  31260.1
    8501.92  119961  31496.1
    8507.03  119881  34500.1
    8512.21  119766  40445.1
    8517.47  119904  48706.1
    8522.81  120153  54108.1
    8528.22  119908  51688.1
    8533.71  119979  46348.1
    8539.27  119864  42778.1
    8544.91  119867  42276.1
    8550.63  119582  42925.1
    8556.42  119679  44367.1
    8562.29  119547  45758.1
    8568.24  119448  43385.1
    8574.26  120037  40128.1
    8580.35  120251  38836.1
    8586.53  119311  39323.1
    8592.78  119342  42896.1
    8599.1  119260  47762.1
    8605.5  120024  51137.1
    8611.98  119500  51327.1
    8618.53  119920  51444.1
    8625.16  119478  51429.1
    8631.87  119444  51124.1
    8638.65  119489  50011.1
    8645.51  119861  49270.1
    8652.44  119640  48760.1
    8659.45  120252  48407.1
    8666.54  119468  47145.1
    8673.7  119725  47671.1
    8680.94  120567  49954.1
    8688.26  120009  52241.1
    8695.65  119793  53155.1
    8703.11  119985  53253.1
    8710.66  118886  54481.1
    8718.27  119253  56482.1
    8725.97  120134  57189.1
    8733.74  118902  56608.1
    8741.59  121551  57678.1
    8749.51  120026  56552.1
    8757.51  119953  56120.1
    8765.58  119551  55713.1
    8773.74  119439  55589.1
    8781.96  120187  56668.1
    8790.27  119295  57880.1
    8798.65  122493  61150.1
    8807.1  118992  59886.1
    8815.64  119837  60577.1
    8824.24  119692  61170.1
    8832.93  118906  62005.1
    8841.69  120041  63547.1
    8850.52  119765  64186.1
    8859.44  119481  64704.1
    8868.42  121015  65531.1
    8877.49  120173  64964.1
    8886.63  119894  64290.1
    8895.85  119393  64023.1
    8905.14  119136  64897.1
    8914.51  119435  66638.1
    8923.95  119185  67501.1
    8933.47  119544  68507.1
    8943.07  119198  68901.1
    8952.74  119692  69921.1
    8962.49  119934  70956.1
    8972.32  119695  71598.1
    8982.22  119418  72137.1
    8992.2  119821  72982.1
    9002.25  119305  73038.1
    9012.38  119211  73350.1
    9022.58  119471  73885.1
    9032.87  119381  74640.1
    9043.23  119907  75506.1
    9053.66  119092  75947.1
    9064.17  119439  77034.1
    9074.76  119656  78010.1
    9085.42  119251  78577.1
    9096.16  119501  79595.1
    9106.97  119253  80415.1
    9117.86  119463  81285.1
    9128.83  119404  82213.1
    9139.87  119684  83048.1
    9150.99  119557  83461.1
    9162.18  119868  84301.1
    9173.45  119360  84733.1
    9184.8  119991  86059.1
    9196.23  119531  86446.1
    9207.72  119913  87542.1
    9219.3  120123  88638.1
    9230.95  119481  89151.1
    9242.68  119104  89745.1
    9254.48  119968  91347.1
    9266.36  119775  92087.1
    9278.32  119655  92873.1
    9290.35  119010  93198.1
    9302.46  119128  94071.1
    9314.64  118959  94855.1
    9326.9  118505  95294.1
    9339.24  120005  97378.1
    9351.65  120138  98374.1
    9364.14  119712  98960.1
    9376.7  119730  99922.1
    9389.34  118746  100115
    9402.06  120119  102287
    9414.85  119692  102861
    9427.72  119561  103765
    9440.66  119542  104825
    9453.69  119961  106222
    9466.78  119421  106679
    9479.95  119555  107883
    9493.2  119557  108865
    9506.53  119753  110068
    9519.93  120275  111614
    9533.41  120495  112902
    9546.96  119195  112623
    9560.59  119605  114220
    9567.43  119523  114688

File: NiOH2_rt_01.xdi
# XDI/1.0
# Column.1: energy eV
# Column.2: i0
# Column.3: itrans
# Column.4: irefer
# Beamline.name: SSRL 4-1
# Detector.I0: N2 15cm
# Detector.I1: N2 30cm
# Detector.I2: N2 15cm
# Element.edge: K
# Element.symbol: Ni
# Mono.d_spacing: 3.13550
# Mono.name: Si(111)
# Mono.notes: unfocused, detuned 25%,counter clockwise
# Sample.formula: Ni_OH_2
# Sample.name: Ni(OH)2   nickel hydroxide
# Sample.prep: powder, mixed 1:100 with B(OH)3 by wt
# Sample.reference: none
# Sample.temperature: room temperature
# Scan.start_time: 1997-01-17 15:07:08
# ///
#    Note: mono d_spacing is nominal!
#     exafs to K17
#     435  E XMU XMUR I0
#-------------
#   energy   i0   itrans  irefer
    8110  217540  175297  515936
    8130  217529  177477  522348
    8150  216702  179001  529189
    8170  215739  180426  536659
    8190  215334  182282  545193
    8210  214686  184007  554119
    8230  214017  185614  563645
    8250  213109  187021  573414
    8270  212047  188255  582807
    8290  210915  189404  592171
    8310  210425  191061  599649
    8311  210877  191564  602526
    8312  210618  191419  603375
    8313  210299  191228  604142
    8314  210221  191239  605146
    8315  209926  191039  605517
    8316  210341  191523  606850
    8317  210598  191835  607250
    8318  210557  191887  607790
    8319  210260  191663  607390
    8320  209743  191302  606419
    8321  208817  190500  604359
    8322  206564  188548  599893
    8323  204463  186716  595873
    8324  202437  184973  592733
    8325  201557  184228  590704
    8326  202095  184736  589496
    8327  204497  186903  590715
    8328  207539  189707  590291
    8329  210161  192173  584402
    8330  211270  193179  571240
    8331  211200  193036  549065
    8332  211329  192989  519368
    8333  211064  192633  480623
    8334  210520  192090  403874
    8335  210125  191749  336661
    8336  210160  191612  294875
    8337  209814  190742  267104
    8338  209512  189440  244460
    8339  209579  187801  221449
    8340  209349  185141  197698
    8341  209358  181708  173911
    8342  209484  177744  150997
    8343  209633  173466  128160
    8344  209859  168792  105460
    8345  210254  163517  84769.1
    8346  210214  156547  66169.1
    8347  210374  149650  52194.1
    8348  210201  143749  42760.1
    8349  210020  140306  37921.1
    8350  209894  139336  36311.1
    8351  209737  139943  36500.1
    8352  209720  141752  37589.1
    8353  209749  144761  38865.1
    8354  209583  148067  39470.1
    8355  209575  151219  39092.1
    8356  209673  153950  37960.1
    8357  209562  155957  36743.1
    8358  209310  157529  36096.1
    8359  209389  158915  36426.1
    8360  209592  159854  37434.1
    8361  209377  159882  38546.1
    8362  209498  159737  39670.1
    8363  209511  159346  40836.1
    8364  209681  159188  42138.1
    8365  209522  159111  43533.1
    8366  209496  159505  44900.1
    8367  209632  160276  45995.1
    8368  209548  161001  46761.1
    8369  209273  161636  47214.1
    8370  209530  162741  47556.1
    8371.78  209287  164133  47041.1
    8373.65  209340  165320  45149.1
    8375.58  209426  165887  41998.1
    8377.6  209434  165603  38375.1
    8379.69  209488  164637  34974.1
    8381.85  209479  163281  32954
    8384.1  209511  161843  33165
    8386.42  209485  160267  35527
    8388.81  209636  159063  39224
    8391.28  209652  158075  42862.9
    8393.83  209765  157532  45574.9
    8396.46  209914  157488  46717.9
    8399.16  210172  158254  47095.8
    8401.94  210093  159219  47956.8
    8404.78  210531  160615  48565.7
    8407.72  210287  161354  47631.7
    8410.72  210525  162233  46405.6
    8413.81  210781  163060  45150.5
    8416.96  211304  164129  43141.5
    8420.2  211100  164646  40949.4
    8423.51  211749  165914  38835.4
    8426.89  211830  166683  36242.3
    8430.36  212270  167499  34446.2
    8433.9  212470  167847  34799.1
    8437.51  212850  168291  37510
    8441.21  212934  168642  41457.9
    8444.97  213471  169595  45710.9
    8448.82  213882  170517  49091.7
    8452.74  214179  171355  54046.6
    8456.74  214517  171777  59100.6
    8460.81  215001  171753  60316.4
    8464.96  215456  171659  57558.3
    8469.19  215859  172046  53381.2
    8473.49  216158  172549  50550.1
    8477.87  216884  173300  50820
    8482.33  217078  173763  51505.9
    8486.85  217590  174848  47768.8
    8491.47  218255  176320  41801.6
    8496.15  218856  177992  39275.5
    8500.91  219234  179587  39367.4
    8505.75  219512  180843  41942.2
    8510.66  220373  182080  48422.1
    8515.65  220833  182547  58744
    8520.71  221703  183370  70121.8
    8525.86  222145  184169  73792.6
    8531.07  222685  185129  68330.5
    8536.37  223531  186285  61554.3
    8541.74  223884  186963  57869.2
    8547.19  224413  187862  57992
    8552.71  225109  189290  59906.8
    8558.31  226009  191116  62821.7
    8563.99  226507  192311  64873.5
    8569.74  227208  193218  61278.3
    8575.57  228024  194279  56670.1
    8581.47  228637  195415  54987.9
    8587.45  229302  196673  56581.7
    8593.51  229939  197791  62297.5
    8599.64  230705  199035  70368.3
    8605.85  231755  200584  76562.2
    8612.14  232099  201649  78398
    8618.5  232704  203183  78944.7
    8624.94  233387  204996  79933.5
    8631.45  234934  207345  80789.3
    8638.05  235658  208677  79746.1
    8644.71  236371  210003  78486.9
    8651.46  237300  211542  78187.7
    8658.28  238502  213300  78074.4
    8665.17  238965  214303  77081.2
    8672.15  239880  215668  77040
    8679.19  241158  217526  80237.7
    8686.32  241139  218355  85005.5
    8693.52  242399  220517  89533.2
    8700.81  243471  222632  91038
    8708.16  244348  224445  93178.7
    8715.58  245187  226097  98401.5
    8723.1  246304  228014  101265
    8730.68  247112  229743  102516
    8738.34  248093  231612  103350
    8746.08  248818  233187  103564
    8753.89  250276  235434  103936
    8761.77  250899  236921  104055
    8769.74  252045  238999  104730
    8777.78  252791  240806  105844
    8785.9  254040  243140  108950
    8794.09  254656  244827  113698
    8802.36  255814  246967  117827
    8810.7  256807  248956  119962
    8819.13  257394  250556  121633
    8827.63  253848  248145  122659
    8836.2  258954  254201  128828
    8844.85  261652  257893  132796
    8853.59  262225  259568  135815
    8862.38  263416  261917  138467
    8871.27  264042  263825  139764
    8880.22  265322  266305  140659
    8889.26  266346  268567  141067
    8898.37  267751  271227  142943
    8907.55  268308  273024  147105
    8916.81  269285  275269  152467
    8926.15  270161  277336  156543
    8935.57  270899  279331  159880
    8945.06  272038  281725  163191
    8954.62  273761  284790  167210
    8964.26  274411  286764  170770
    8973.98  275715  289476  175232
    8983.78  276545  291664  178928
    8993.65  277347  293822  182032
    9003.6  278736  296651  185460
    9013.63  279580  298975  188252
    9023.73  280583  301463  191263
    9033.9  281384  303715  194901
    9044.16  282690  306528  199260
    9054.49  284327  309688  204390
    9064.89  283826  310627  208210
    9075.38  284999  313386  212992
    9085.93  284859  314754  217083
    9096.57  287540  319256  223244
    9107.28  288013  321305  227872
    9118.07  290404  325526  234160
    9128.93  289814  326435  238062
    9139.87  291624  330055  243384
    9150.89  292567  332713  247620
    9161.98  294276  336255  252733
    9173.15  294669  338268  257452
    9184.4  295692  341059  263063
    9195.72  296502  343624  268215
    9207.11  297848  346853  274014
    9218.59  298071  348748  279343
    9230.13  299177  351797  285802
    9241.76  298829  353061  290861
    9253.47  301398  357862  298794
    9265.25  300697  358721  303630
    9277.1  303085  363356  311566
    9289.03  304037  366289  317987
    9301.04  305172  369443  324477
    9313.13  305912  372127  330616
    9325.29  306602  374776  336964
    9337.52  307861  378126  344174
    9349.84  308898  381227  351412
    9362.23  309667  384049  358597
    9374.69  310304  386733  365725
    9387.24  310915  389363  372942
    9399.86  312085  392704  381092
    9412.55  312517  395175  388535
    9425.32  313690  398565  397183
    9438.17  314833  402002  405951
    9451.09  315889  405319  414745

File: NiOH2_rt_02.xdi
# XDI/1.0
# Column.1: energy eV
# Column.2: i0
# Column.3: itrans
# Column.4: irefer
# Beamline.name: SSRL 4-1
# Detector.I0: N2 15cm
# Detector.I1: N2 30cm
# Detector.I2: N2 15cm
# Element.edge: K
# Element.symbol: Ni
# Mono.d_spacing: 3.13550
# Mono.name: Si(111)
# Mono.notes: unfocused, detuned 25%,counter clockwise
# Sample.formula: Ni_OH_2
# Sample.name: Ni(OH)2   nickel hydroxide
# Sample.prep: powder, mixed 1:100 with B(OH)3 by wt
# Sample.reference: none
# Sample.temperature: room temperature
# Scan.start_time: 1997-01-17 15:07:08
# ///
#    Note: mono d_spacing is nominal!
#     exafs to K17
#     435  E XMU XMUR I0
#-------------
#   energy   i0   itrans  irefer
    8110  220369  177337  500822
    8130  219804  179089  509143
    8150  219251  180873  518440
    8170  218723  182703  528547
    8190  218285  184598  539254
    8210  217239  185967  549791
    8230  216696  187743  561107
    8250  215775  189190  572347
    8270  214793  190577  583058
    8290  213312  191467  592584
    8310  213105  193368  601387
    8311  213346  193700  603611
    8312  213182  193668  604899
    8313  212676  193306  605231
    8314  212446  193161  606179
    8315  212628  193425  607398
    8316  212740  193637  608289
    8317  212799  193797  608683
    8318  213031  194106  609826
    8319  212546  193773  608992
    8320  211963  193329  607965
    8321  210924  192438  605629
    8322  208833  190628  601188
    8323  206323  188435  596236
    8324  204384  186779  592371
    8325  203312  185852  589728
    8326  204552  187033  589804
    8327  207104  189350  591920
    8328  209832  191876  591053
    8329  212101  194016  583950
    8330  213463  195245  568864
    8331  213436  195110  543282
    8332  212999  194570  511201
    8333  212730  194255  472342
    8334  212461  193960  397737
    8335  212281  193817  333784
    8336  211970  193341  293369
    8337  211701  192462  266338
    8338  211324  191009  243698
    8339  211327  189212  220319
    8340  211134  186460  196507
    8341  211352  183109  172839
    8342  211386  178991  149607
    8343  211392  174492  126421
    8344  211387  169506  103582
    8345  211560  163894  82915.1
    8346  212114  157299  64991.1
    8347  211980  150192  51313.1
    8348  211733  144449  42343.1
    8349  211711  141375  37940.1
    8350  211666  140691  36607.1
    8351  211418  141382  36917.1
    8352  211414  143349  38062.1
    8353  210941  146127  39233.1
    8354  211149  149790  39810.1
    8355  211088  152868  39298.1
    8356  211175  155549  38113.1
    8357  211231  157605  36948.1
    8358  211345  159443  36476.1
    8359  211159  160562  36858.1
    8360  211425  161493  37936.1
    8361  210753  161134  38977.1
    8362  210911  160995  40106.1
    8363  210945  160626  41303.1
    8364  210870  160318  42583.1
    8365  211081  160545  44062.1
    8366  210796  160797  45357.1
    8367  210960  161577  46428.1
    8368  210974  162423  47206.1
    8369  210758  163113  47656.1
    8370  210882  164132  47939.1
    8371.78  210606  165498  47330.1
    8373.65  210678  166647  45346.1
    8375.58  210682  167135  42113.1
    8377.6  210585  166728  38446.1
    8379.69  210550  165639  35042.1
    8381.85  210696  164392  33141
    8384.1  210563  162829  33459
    8386.42  210525  161269  35929
    8388.81  210729  160095  39667.9
    8391.28  210731  159128  43304.9
    8393.83  210668  158458  45925.9
    8396.46  210973  158557  47041.9
    8399.16  211073  159229  47398.8
    8401.94  211151  160322  48309.8
    8404.78  211326  161545  48827.7
    8407.72  211244  162399  47870.7
    8410.72  211962  163664  46778.6
    8413.81  211924  164289  45442.5
    8416.96  212011  164993  43309.5
    8420.2  212234  165848  41197.4
    8423.51  212460  166800  38962.4
    8426.89  212697  167678  36368.3
    8430.36  212965  168357  34593.2
    8433.9  213293  168827  35077.1
    8437.51  213672  169251  37873
    8441.21  213794  169640  41861.9
    8444.97  214335  170590  46103.9
    8448.82  214739  171546  49523.8
    8452.74  215224  172523  54610.7
    8456.74  215338  172728  59561.6
    8460.81  215725  172611  60582.4
    8464.96  216066  172415  57652.4
    8469.19  216421  172770  53460.3
    8473.49  217129  173610  50823.1
    8477.87  217575  174146  51122
    8482.33  217749  174596  51725.9
    8486.85  218680  176026  47926.7
    8491.47  218909  177187  41874.6
    8496.15  219407  178788  39426.5
    8500.91  219983  180521  39601.4
    8505.75  220371  181879  42299.2
    8510.66  220846  182791  48816.1
    8515.65  221511  183397  59325.9
    8520.71  222229  184085  70618.8
    8525.86  222764  184951  74103.6
    8531.07  223335  185951  68446.5
    8536.37  224101  187036  61673.3
    8541.74  224560  187796  58098.2
    8547.19  225175  188775  58322
    8552.71  225742  190097  60227.8
    8558.31  226266  191660  63074.7
    8563.99  226672  192756  65018.5
    8569.74  227563  193806  61341.3
    8575.57  227886  194482  56672.1
    8581.47  228676  195754  55090.9
    8587.45  229413  197070  56793.8
    8593.51  230137  198306  62618.5
    8599.64  230884  199527  70702.4
    8605.85  231414  200653  76687.2
    8612.14  232285  202156  78623
    8618.5  232331  203210  78979.7
    8624.94  233394  205351  80115.5
    8631.45  234598  207400  80825.3
    8638.05  235715  209058  79890.1
    8644.71  236189  210172  78550.9
    8651.46  237141  211780  78294.7
    8658.28  238129  213319  78099.4
    8665.17  238899  214591  77194.2
    8672.15  239570  215769  77126
    8679.19  240392  217217  80215.7
    8686.32  241334  218909  85319.5
    8693.52  242055  220592  89623.3
    8700.81  243109  222694  91093
    8708.16  244002  224519  93303.8
    8715.58  245046  226377  98631.5
    8723.1  245873  228042  101336
    8730.68  246906  229941  102659
    8738.34  247898  231803  103478
    8746.08  248787  233555  103772
    8753.89  249577  235158  103842
    8761.77  250582  237025  104148
    8769.74  251548  238929  104725
    8777.78  252322  240777  105887
    8785.9  253325  242895  108925
    8794.09  254065  244710  113742
    8802.36  255043  246718  117788
    8810.7  255863  248509  119797
    8819.13  256811  250443  121640
    8827.63  253264  248027  122698
    8836.2  258091  253799  128701
    8844.85  260670  257376  132603
    8853.59  261459  259264  135733
    8862.38  262478  261462  138289
    8871.27  263271  263512  139605
    8880.22  264102  265556  140308
    8889.26  265134  267826  140732
    8898.37  266538  270504  142617
    8907.55  267049  272264  146825
    8916.81  268613  275074  152468
    8926.15  269428  277124  156509
    8935.57  269711  278639  159575
    8945.06  270743  280917  162806
    8954.62  272252  283725  166677
    8964.26  273168  285973  170381
    8973.98  274326  288547  174755
    8983.78  275332  290923  178544
    8993.65  276068  293022  181618
    9003.6  277413  295827  185005
    9013.63  278320  298200  187829
    9023.73  279129  300464  190695
    9033.9  279960  302766  194370
    9044.16  281260  305567  198734
    9054.49  282006  307786  203257
    9064.89  282546  309852  207794
    9075.38  283444  312274  212309
    9085.93  283315  313658  216415
    9096.57  286015  318178  222582
    9107.28  286749  320520  227411
    9118.07  288332  323858  233065
    9128.93  288207  325293  237323
    9139.87  289809  328641  242418
    9150.89  291182  331763  247002
    9161.98  292195  334572  251632
    9173.15  292950  336995  256594
    9184.4  293840  339658  262095
    9195.72  294789  342387  267350
    9207.11  295789  345223  272823
    9218.59  296543  347709  278630
    9230.13  297426  350514  284884
    9241.76  297129  351874  290001
    9253.47  299301  356195  297560
    9265.25  299152  357720  302909
    9277.1  301303  362069  310596
    9289.03  302087  364742  316790
    9301.04  302837  367449  322843
    9313.13  303611  370171  329001
    9325.29  304619  373200  335655
    9337.52  305694  376328  342686
    9349.84  306383  379021  349506
    9362.23  307268  381950  356763
    9374.69  308363  385192  364401
    9387.24  308446  387159  370943
    9399.86  309632  390527  379109
    9412.55  310509  393534  387068
    9425.32  311193  396296  395077
    9438.17  312036  399346  403433
    9451.09  312720  402147  411657