Folder: XASDataLibrary/data/Ni

Note: README
The XAS Data Library is designed to hold X-ray Absorption Spectra (EXAFS
and XANES) using an SQLite database, with array data encoded using JSON.
The principle goal for the library is as a proposed standard for storing
and exchanging XAS data. The implementation here is intended for initial
reference and comments. 

The idea is provide a format and set of tools for managing Libraries of
XAFS Data, and to be able to share these libraries between different
researchers and different analysis programs.  As the the base format of the
library will be created with SQLite, the SQL syntax and any third party
software that can use SQL and SQLite will be able to explore the data in
the format.  In addition, reference implementations of programmatically
interecting with the library will be provided.  

Ideally, a stand-alone GUI Data Browser and an on-line Library will be
built upon such a format.

See http://xafs.org/XasDataLibrary for additional information.


--Matt Newville  18-Feb-2011

File: Ni2O3_rt_01.xdi
# XDI/1.0
# Column.1: energy eV
# Column.2: i0
# Column.3: itrans
# Column.4: irefer
# Beamline.name: SSRL 4-1
# Detector.I0: N2 15cm
# Detector.I1: N2 30cm
# Detector.I2: N2 15cm
# Element.edge: K
# Element.symbol: Ni
# Mono.d_spacing: 3.13550
# Mono.name: Si(111)
# Mono.notes: unfocused, detuned 25%,counter clockwise
# Sample.formula: Ni2O3
# Sample.name: Ni2O3
# Sample.prep: powder, mixed 1:100 with B(OH)3 by wt
# Sample.reference: none
# Sample.temperature: room temperature
# Scan.start_time: 1997-01-17 17:59:41
# ///
#    Note: mono d_spacing is nominal!
#     exafs to K17
#     435  E XMU XMUR I0
#-------------
#   energy   i0   itrans  irefer
    8110  289576  186931  578508
    8130  288842  189064  583670
    8150  288350  191389  591459
    8170  287301  193358  600538
    8190  286918  195786  611992
    8210  285902  197765  623265
    8230  285439  200150  636113
    8250  284449  202138  648640
    8270  283378  204033  660818
    8290  281510  205313  671415
    8310  281485  207754  681141
    8311  281731  208051  682860
    8312  281498  207999  683206
    8313  281555  208147  683996
    8314  281375  208129  683964
    8315  281001  207976  683516
    8316  281303  208294  684286
    8317  281742  208713  684445
    8318  281493  208623  683931
    8319  281389  208640  683394
    8320  281196  208586  682164
    8321  279794  207621  678636
    8322  277183  205754  672436
    8323  274128  203559  665949
    8324  271173  201436  660110
    8325  270193  200754  657195
    8326  270768  201214  655572
    8327  273846  203556  656231
    8328  277651  206432  655221
    8329  281397  209182  648535
    8330  283156  210260  630786
    8331  283439  210198  599168
    8332  283398  209747  560343
    8333  282604  208818  522066
    8334  283094  208760  450215
    8335  282090  207533  373003
    8336  281904  206431  322895
    8337  281740  204538  289958
    8338  281498  201525  263378
    8339  281509  197107  236189
    8340  281353  191108  208065
    8341  281368  183481  179237
    8342  281794  175223  152361
    8343  282024  166315  126694
    8344  282911  156744  102139
    8345  282634  145837  79431.1
    8346  282609  134427  59836.1
    8347  282613  124016  45477.1
    8348  283076  115518  36077.1
    8349  282874  108956  30688.1
    8350  282513  105158  28315.1
    8351  282614  105074  28155.1
    8352  282044  108771  29493.1
    8353  282194  115231  31533.1
    8354  282209  121758  33053.1
    8355  282487  127283  33576.1
    8356  281990  131640  33184.1
    8357  282150  135870  32733.1
    8358  282124  140312  32819.1
    8359  282382  144707  33751.1
    8360  282232  148080  35174.1
    8361  281794  149669  36541.1
    8362  281965  149874  37645.1
    8363  282702  148886  38590.1
    8364  282409  146583  39211.1
    8365  282401  144346  39901.1
    8366  282337  142907  40669.1
    8367  282596  142832  41502.1
    8368  282400  143476  42216.1
    8369  282576  144789  42857.1
    8370  282752  146227  43311.1
    8371.78  282655  148243  43141.1
    8373.65  282432  150015  41681.1
    8375.58  282896  152077  39269.1
    8377.6  282833  152700  36169.1
    8379.69  282255  151412  32899
    8381.85  282230  149301  30769
    8384.1  282844  147645  30808
    8386.42  283234  146255  32872
    8388.81  283069  143397  35756
    8391.28  283170  139008  38123.9
    8393.83  283506  135194  39639.9
    8396.46  283525  132843  40006.8
    8399.16  284101  131989  39914.8
    8401.94  284406  133050  40706.8
    8404.78  284160  136290  41828.7
    8407.72  284527  140553  42155.7
    8410.72  284911  144784  42073.6
    8413.81  285147  148333  41743.5
    8416.96  285539  151441  40494.5
    8420.2  286078  153372  38837.4
    8423.51  286207  153495  36616.3
    8426.89  287128  152544  33868.3
    8430.36  287071  150950  31686.2
    8433.9  288372  151311  31985.1
    8437.51  288703  151488  34354
    8441.21  289174  151239  37736
    8444.97  289611  149668  40900.9
    8448.82  290443  148427  43347.8
    8452.74  290732  149198  47666.7
    8456.74  291364  152208  52980.5
    8460.81  292112  156529  55580.5
    8464.96  292590  160234  54334.4
    8469.19  293609  160961  50559.3
    8473.49  294132  157740  46854.1
    8477.87  295070  155088  46123
    8482.33  295627  155863  46816.9
    8486.85  296003  158441  43917.8
    8491.47  297164  159891  38584.6
    8496.15  297906  159469  35819.5
    8500.91  297884  158627  35387.4
    8505.75  299910  159981  37733.2
    8510.66  300349  162073  43693.1
    8515.65  300763  165684  53912.9
    8520.71  301955  170754  65886.8
    8525.86  302819  174927  70714.6
    8531.07  304046  176356  65714.5
    8536.37  304693  174081  58124.3
    8541.74  305742  171334  53663.1
    8547.19  306278  169763  53020
    8552.71  307338  170496  54599.8
    8558.31  308330  172374  57274.6
    8563.99  309808  174818  59604.5
    8569.74  310680  176721  56675.3
    8575.57  311799  178527  52707.1
    8581.47  312634  180560  51427.9
    8587.45  313929  182581  53154.8
    8593.51  314845  183664  58452.5
    8599.64  316154  185759  66281.4
    8605.85  317282  188570  72589.2
    8612.14  318387  190671  74736
    8618.5  318523  191066  74841.7
    8624.94  319953  191510  75317.5
    8631.45  322690  192526  75669.3
    8638.05  323265  192817  74316.1
    8644.71  324599  194333  73263.9
    8651.46  325994  196496  73240.7
    8658.28  326774  199675  73698.4
    8665.17  328442  203252  73738.2
    8672.15  329468  204880  73783
    8679.19  330570  205939  76543.7
    8686.32  331433  207438  81326.5
    8693.52  333368  209904  85822.2
    8700.81  334780  211044  86924
    8708.16  335794  211777  88520.7
    8715.58  337159  212805  93212.5
    8723.1  338202  214236  95778.2
    8730.68  339931  216976  97442
    8738.34  341131  219938  98755.7
    8746.08  342673  223777  100009
    8753.89  344323  226440  100573
    8761.77  345789  227644  100604
    8769.74  347103  229091  100989
    8777.78  348473  231403  102315
    8785.9  349852  233615  105276
    8794.09  351671  236167  110262
    8802.36  352947  238013  114145
    8810.7  354150  239824  116144
    8819.13  355118  241048  117605
    8827.63  351047  239349  118892
    8836.2  357467  245457  124982
    8844.85  362103  250416  129529
    8853.59  362619  252612  132747
    8862.38  364158  255533  135662
    8871.27  365667  258043  137240
    8880.22  367679  260751  138314
    8889.26  369089  263365  138935
    8898.37  370514  265778  140631
    8907.55  371993  267741  144797
    8916.81  373776  269653  149923
    8926.15  375517  272591  154434
    8935.57  376043  275281  158150
    8945.06  377971  278456  161862
    8954.62  380210  281529  165873
    8964.26  381536  284392  169904
    8973.98  384089  288155  174988
    8983.78  385540  290682  178862
    8993.65  386631  293090  182130
    9003.6  388172  295884  185492
    9013.63  389781  298746  188629
    9023.73  391446  301446  191784
    9033.9  393072  304433  195885
    9044.16  394439  307615  200498
    9054.49  396412  311129  205854
    9064.89  397397  313719  210802
    9075.38  398981  316642  215685
    9085.93  399217  318849  220390
    9096.57  403244  324221  227202
    9107.28  404004  326849  232279
    9118.07  406686  330962  238553
    9128.93  407018  333135  243423
    9139.87  409710  337053  249007
    9150.89  411911  340493  253871
    9161.98  413341  343809  258926
    9173.15  414527  347053  264581
    9184.4  417376  351666  271697
    9195.72  418644  354898  277451
    9207.11  420473  358667  283779
    9218.59  422021  362114  290402
    9230.13  423709  365753  297567
    9241.76  423369  367637  303304
    9253.47  427331  373188  312057
    9265.25  426975  375051  317859
    9277.1  430865  380673  326809
    9289.03  433011  384949  334608
    9301.04  435011  389032  342040
    9313.13  435688  391948  348581
    9325.29  437596  396046  356415
    9337.52  439795  400486  364820
    9349.84  441511  404512  373168
    9362.23  443123  408435  381638
    9374.69  444104  411784  389681
    9387.24  446080  416170  398856
    9399.86  447661  420095  407900
    9412.55  449517  424328  417412
    9425.32  450611  427976  426661
    9438.17  452951  432758  437166
    9451.09  455287  437595  447897

File: Ni2O3_rt_02.xdi
# XDI/1.0
# Column.1: energy eV
# Column.2: i0
# Column.3: itrans
# Column.4: irefer
# Beamline.name: SSRL 4-1
# Detector.I0: N2 15cm
# Detector.I1: N2 30cm
# Detector.I2: N2 15cm
# Element.edge: K
# Element.symbol: Ni
# Mono.d_spacing: 3.13550
# Mono.name: Si(111)
# Mono.notes: unfocused, detuned 25%,counter clockwise
# Sample.formula: Ni2O3
# Sample.name: Ni2O3
# Sample.prep: powder, mixed 1:100 with B(OH)3 by wt
# Sample.reference: none
# Sample.temperature: room temperature
# Scan.start_time: 1997-01-17 17:59:41
# ///
#    Note: mono d_spacing is nominal!
#     exafs to K17
#     435  E XMU XMUR I0
#-------------
#   energy   i0   itrans  irefer
    8110  296265  191684  532538
    8130  296820  194726  551205
    8150  295731  196732  567187
    8170  295297  199177  583931
    8190  294760  201608  600884
    8210  293938  203786  617121
    8230  293240  206050  633697
    8250  292534  208308  649837
    8270  291685  210478  665447
    8290  289737  211765  678430
    8310  290068  214559  690792
    8311  290302  214851  693118
    8312  289768  214554  693641
    8313  289492  214466  694396
    8314  289404  214531  695447
    8315  288966  214306  695361
    8316  289420  214751  696611
    8317  290013  215319  698369
    8318  289833  215261  698221
    8319  289279  214942  696967
    8320  288741  214639  695384
    8321  286814  213276  690789
    8322  283765  211094  683758
    8323  280730  208924  677026
    8324  277955  206903  670883
    8325  277239  206392  667491
    8326  278691  207503  666907
    8327  282205  210214  668558
    8328  286110  213138  666700
    8329  289147  215339  656564
    8330  290549  216167  631729
    8331  290762  215927  589844
    8332  289929  214920  540478
    8333  289647  214357  498193
    8334  289251  213610  432898
    8335  289079  212904  364808
    8336  288549  211305  319499
    8337  288359  209053  288539
    8338  288057  205539  261774
    8339  287912  200439  233522
    8340  287774  193847  204676
    8341  287750  185640  175605
    8342  288021  176884  148310
    8343  287951  167265  122071
    8344  288583  157001  97250.1
    8345  288584  145882  75176.1
    8346  288907  134450  56614.1
    8347  288919  124309  43510.1
    8348  288819  115900  35073.1
    8349  288577  109911  30571.1
    8350  288522  107124  28914.1
    8351  288295  108224  29276.1
    8352  288046  113091  30950.1
    8353  288045  119869  32994.1
    8354  287854  126236  34224.1
    8355  287879  131442  34422.1
    8356  287841  135939  33992.1
    8357  287710  140146  33577.1
    8358  287679  144693  33920.1
    8359  287950  149007  35056.1
    8360  287710  151993  36567.1
    8361  287686  153319  37925.1
    8362  287798  152993  38988.1
    8363  287860  151272  39745.1
    8364  287615  148859  40362.1
    8365  287787  146844  41120.1
    8366  287767  145733  41930.1
    8367  287919  145956  42734.1
    8368  287628  146779  43423.1
    8369  287583  148050  44006.1
    8370  287828  149524  44383.1
    8371.78  287446  151359  43936.1
    8373.65  287595  153355  42373.1
    8375.58  287770  155197  39717.1
    8377.6  288182  155846  36572.1
    8379.69  287818  154402  33363.1
    8381.85  287674  152137  31453
    8384.1  287976  150373  31751
    8386.42  288105  148772  34046
    8388.81  288207  145759  36988
    8391.28  288359  141228  39286.9
    8393.83  288430  137418  40668.9
    8396.46  288504  135238  40903.8
    8399.16  288964  134446  40817.8
    8401.94  289145  135787  41711.8
    8404.78  289319  139441  42893.7
    8407.72  289811  143862  43126.7
    8410.72  290315  148189  43085.6
    8413.81  290097  151516  42575.5
    8416.96  290378  154518  41206.5
    8420.2  291200  156469  39543.4
    8423.51  291545  156542  37264.3
    8426.89  292385  155432  34463.3
    8430.36  292138  153817  32363.2
    8433.9  292515  153766  32759.1
    8437.51  293249  154133  35361
    8441.21  293825  153837  38829.9
    8444.97  294317  152178  41968.8
    8448.82  294979  150948  44461.8
    8452.74  295524  152069  49093.7
    8456.74  295967  155169  54358.6
    8460.81  296677  159556  56667.5
    8464.96  297156  163198  55155.4
    8469.19  297931  163447  51166.2
    8473.49  298641  160131  47568.1
    8477.87  299410  157544  47022
    8482.33  299899  158547  47631.9
    8486.85  300671  161352  44434.8
    8491.47  301565  162524  39008.6
    8496.15  302467  162119  36488.5
    8500.91  303069  161631  36243.4
    8505.75  304001  162510  38692.2
    8510.66  304627  164824  45007.1
    8515.65  305701  168946  55730.9
    8520.71  306528  173898  67672.8
    8525.86  307029  177800  71784.6
    8531.07  308272  179055  66377.5
    8536.37  309454  176897  58911.4
    8541.74  310062  173906  54469.1
    8547.19  311113  172700  54080
    8552.71  311992  173408  55687.8
    8558.31  313130  175401  58534.7
    8563.99  314444  177815  60664.5
    8569.74  315083  179579  57423.3
    8575.57  316455  181567  53563.1
    8581.47  317101  183521  52347.9
    8587.45  318318  185478  54218.8
    8593.51  319189  186554  59734.5
    8599.64  320522  188730  67723.4
    8605.85  321535  191502  73928.2
    8612.14  322438  193456  75907.9
    8618.5  322902  194011  76071.7
    8624.94  323912  194172  76428.5
    8631.45  326314  194990  76640.3
    8638.05  327627  195747  75418.1
    8644.71  328734  197158  74330.9
    8651.46  329725  199147  74260.7
    8658.28  331617  203109  75011.4
    8665.17  332147  205959  74717.2
    8672.15  333823  207935  74986.9
    8679.19  335134  209140  77930.7
    8686.32  336231  210863  82910.5
    8693.52  337454  212836  87123.3
    8700.81  338804  213911  88147
    8708.16  340082  214844  89964.8
    8715.58  341707  216040  94819.5
    8723.1  342697  217485  97268.2
    8730.68  344183  220090  98907
    8738.34  345526  223209  100243
    8746.08  347051  227058  101478
    8753.89  348387  229483  101935
    8761.77  349765  230625  101965
    8769.74  350881  231990  102270
    8777.78  352552  234514  103740
    8785.9  354287  236993  106916
    8794.09  355323  239038  111738
    8802.36  357048  241188  115749
    8810.7  358342  243048  117754
    8819.13  359402  244320  119278
    8827.63  355130  242534  120578
    8836.2  361067  248374  126533
    8844.85  365550  253214  131027
    8853.59  366773  255932  134557
    8862.38  368716  259172  137643
    8871.27  370091  261600  139138
    8880.22  371532  263916  139965
    8889.26  372694  266382  140496
    8898.37  374914  269382  142596
    8907.55  375985  271036  146724
    8916.81  377665  272883  151835
    8926.15  379599  276020  156432
    8935.57  380348  278913  160296
    8945.06  382128  281987  163961
    8954.62  383964  284805  167836
    8964.26  386148  288319  172318
    8973.98  387450  291150  176858
    8983.78  389599  294205  181073
    8993.65  390592  296566  184319
    9003.6  392557  299709  187916
    9013.63  394115  302536  191038
    9023.73  395490  305048  194091
    9033.9  397896  308655  198660
    9044.16  398988  311667  203189
    9054.49  400629  314919  208438
    9064.89  401295  317324  213280
    9075.38  403568  320787  218556
    9085.93  402971  322335  222850
    9096.57  407139  327846  229828
    9107.28  408436  330933  235241
    9118.07  411192  335122  241622
    9128.93  411593  337385  246590
    9139.87  414265  341299  252167
    9150.89  415992  344361  256799
    9161.98  418089  348260  262346
    9173.15  419750  351957  268372
    9184.4  421316  355521  274713
    9195.72  422585  358774  280528
    9207.11  424042  362273  286678
    9218.59  425936  366011  293583
    9230.13  428147  370142  301203
    9241.76  427326  371609  306618
    9253.47  431138  377080  315349
    9265.25  430959  379106  321299
    9277.1  436655  386348  331674
    9289.03  436835  388881  338024
    9301.04  439011  393154  345678
    9313.13  440043  396399  352552
    9325.29  442215  400759  360677
    9337.52  443182  404103  368142
    9349.84  445446  408653  377013
    9362.23  446934  412455  385428
    9374.69  449047  416890  394522
    9387.24  450274  420595  403100
    9399.86  452088  424770  412452
    9412.55  453045  428176  421189
    9425.32  455418  433033  431744
    9438.17  457352  437496  441974
    9451.09  458865  441531  451954