Folder: XASDataLibrary/data/Ni (part 2)

File: Ni2O3_rt_03.xdi
# XDI/1.0
# Column.1: energy eV
# Column.2: i0
# Column.3: itrans
# Column.4: irefer
# Beamline.name: SSRL 4-1
# Detector.I0: N2 15cm
# Detector.I1: N2 30cm
# Detector.I2: N2 15cm
# Element.edge: K
# Element.symbol: Ni
# Mono.d_spacing: 3.13550
# Mono.name: Si(111)
# Mono.notes: unfocused, detuned 25%,counter clockwise
# Sample.formula: Ni2O3
# Sample.name: Ni2O3
# Sample.prep: powder, mixed 1:100 with B(OH)3 by wt
# Sample.reference: none
# Sample.temperature: room temperature
# Scan.start_time: 1997-01-17 17:59:41
# ///
#    Note: mono d_spacing is nominal!
#     exafs to K17
#     435  E XMU XMUR I0
#-------------
#   energy   i0   itrans  irefer
    8110  298434  193427  535233
    8130  298653  196269  553926
    8150  298133  198681  571126
    8170  297738  201195  588432
    8190  296571  203189  604688
    8210  296045  205611  621562
    8230  295394  207930  638361
    8250  294640  210186  654822
    8270  293562  212199  670194
    8290  291623  213506  683493
    8310  292073  216396  696090
    8311  292010  216481  697824
    8312  291685  216354  698721
    8313  291584  216383  699757
    8314  291302  216274  700348
    8315  291168  216286  700830
    8316  291522  216656  701855
    8317  291453  216720  702217
    8318  291672  216973  702709
    8319  291254  216767  701809
    8320  290092  215963  698852
    8321  288160  214616  694218
    8322  285214  212501  687354
    8323  281922  210106  679987
    8324  279903  208684  675045
    8325  279381  208275  671624
    8326  281457  209883  671788
    8327  285257  212795  673188
    8328  288688  215361  669257
    8329  291536  217399  656374
    8330  292472  217816  626216
    8331  292366  217335  580354
    8332  292702  217192  532181
    8333  291989  216281  489494
    8334  291244  215260  418009
    8335  291095  214444  355690
    8336  290236  212423  313890
    8337  290157  209970  284372
    8338  290051  206229  257682
    8339  289699  200559  228727
    8340  289567  193599  199719
    8341  289975  185432  171222
    8342  290226  176456  143894
    8343  290384  166579  117555
    8344  290468  155719  92795.1
    8345  290983  144734  71566.1
    8346  290676  133087  53857.1
    8347  290694  123286  41820.1
    8348  290481  115223  34198.1
    8349  290507  109858  30356.1
    8350  290230  107775  29150.1
    8351  290192  109884  29945.1
    8352  289956  115347  31801.1
    8353  289896  122207  33735.1
    8354  289549  128365  34702.1
    8355  289659  133458  34759.1
    8356  289753  137950  34241.1
    8357  289845  142302  33988.1
    8358  289601  146770  34482.1
    8359  289598  150795  35701.1
    8360  289582  153595  37285.1
    8361  289520  154526  38597.1
    8362  289629  153889  39542.1
    8363  289440  151827  40279.1
    8364  289467  149515  40970.1
    8365  289239  147437  41668.1
    8366  289432  146701  42504.1
    8367  289603  147131  43312.1
    8368  289454  148153  44020.1
    8369  289168  149325  44486.1
    8370  289376  150761  44837.1
    8371.78  289123  152638  44226.1
    8373.65  289096  154558  42488.1
    8375.58  289132  156244  39736.1
    8377.6  289231  156541  36525.1
    8379.69  289180  155127  33419.1
    8381.85  289394  153046  31734.1
    8384.1  289144  151024  32149
    8386.42  289569  149527  34627
    8388.81  289496  146246  37537.9
    8391.28  289663  141699  39767.9
    8393.83  289661  137959  41043.9
    8396.46  289792  135886  41259.9
    8399.16  290057  135112  41170.8
    8401.94  290617  136837  42189.8
    8404.78  290555  140461  43273.7
    8407.72  290977  144868  43489.7
    8410.72  291199  149032  43330.6
    8413.81  291488  152610  42887.5
    8416.96  291760  155547  41488.5
    8420.2  291858  157037  39669.4
    8423.51  292336  157073  37334.3
    8426.89  292695  155674  34486.3
    8430.36  293363  154589  32587.2
    8433.9  293682  154551  33135.1
    8437.51  294277  154823  35786
    8441.21  294814  154458  39297.9
    8444.97  295586  152896  42414.8
    8448.82  295632  151428  44877.8
    8452.74  296483  152822  49630.7
    8456.74  297086  156098  54910.6
    8460.81  297619  160427  57004.5
    8464.96  298126  163980  55343.3
    8469.19  298600  163880  51243.2
    8473.49  299537  160591  47778.1
    8477.87  300320  158128  47357
    8482.33  300891  159334  47904.9
    8486.85  301408  162000  44423.7
    8491.47  302094  162939  38993.6
    8496.15  303344  162712  36650.5
    8500.91  304323  162452  36560.4
    8505.75  305087  163307  39159.2
    8510.66  305655  165666  45622.1
    8515.65  305905  169380  56359.9
    8520.71  307206  174631  68329.8
    8525.86  307872  178541  72099.6
    8531.07  309097  179642  66416.5
    8536.37  309910  177168  58868.4
    8541.74  310983  174457  54677.1
    8547.19  311649  173116  54358
    8552.71  312713  174009  56025.8
    8558.31  313639  175925  58835.7
    8563.99  315108  178415  60904.5
    8569.74  315753  180150  57485.3
    8575.57  316824  181984  53634.1
    8581.47  317839  184137  52573.9
    8587.45  318821  185943  54558.7
    8593.51  319905  187133  60259.6
    8599.64  321150  189300  68233.4
    8605.85  322229  192127  74361.2
    8612.14  323265  194108  76239
    8618.5  323469  194499  76368.7
    8624.94  324378  194571  76684.5
    8631.45  327189  195633  76945.3
    8638.05  328250  196298  75639.1
    8644.71  329252  197655  74534.9
    8651.46  330644  199924  74623.7
    8658.28  332085  203627  75227.4
    8665.17  333312  206861  75074.2
    8672.15  334450  208499  75299
    8679.19  336059  209887  78404.7
    8686.32  336983  211542  83415.5
    8693.52  338048  213375  87468.2
    8700.81  339779  214681  88546
    8708.16  340828  215461  90389.8
    8715.58  342133  216473  95184.5
    8723.1  343714  218318  97736.2
    8730.68  344937  220783  99279
    8738.34  346390  223999  100656
    8746.08  347865  227828  101883
    8753.89  349393  230327  102374
    8761.77  351035  231631  102451
    8769.74  352247  233066  102836
    8777.78  353845  235578  104310
    8785.9  354807  237529  107317
    8794.09  356438  239971  112338
    8802.36  357975  241992  116241
    8810.7  359293  243892  118238
    8819.13  360346  245147  119757
    8827.63  355760  243172  121047
    8836.2  361313  248758  126842
    8844.85  366258  253933  131536
    8853.59  367585  256739  135085
    8862.38  369063  259669  137997
    8871.27  370759  262282  139566
    8880.22  372706  264984  140613
    8889.26  373764  267382  141066
    8898.37  375533  270040  143051
    8907.55  376900  271896  147395
    8916.81  378663  273867  152466
    8926.15  379779  276384  156735
    8935.57  381256  279820  160917
    8945.06  383144  282943  164610
    8954.62  385610  286247  168809
    8964.26  386714  288982  172838
    8973.98  388584  292237  177636
    8983.78  390096  294827  181555
    8993.65  391662  297607  185041
    9003.6  392827  300125  188239
    9013.63  394951  303414  191652
    9023.73  396737  306245  194938
    9033.9  398025  308974  198938
    9044.16  399852  312567  203862
    9054.49  401504  315824  209132
    9064.89  401799  317933  213781
    9075.38  404492  321756  219322
    9085.93  403926  323314  223637
    9096.57  408297  329008  230675
    9107.28  409537  332045  236099
    9118.07  412462  336401  242627
    9128.93  412810  338614  247552
    9139.87  415852  342804  253358
    9150.89  416842  345288  257540
    9161.98  418963  349206  263106
    9173.15  420738  352994  269256
    9184.4  422112  356393  275463
    9195.72  423825  360041  281587
    9207.11  425715  363902  288048
    9218.59  427231  367333  294724
    9230.13  429161  371246  302157
    9241.76  428512  372878  307745
    9253.47  433076  379006  317063
    9265.25  432638  380833  322858
    9277.1  436480  386467  331776
    9289.03  438343  390487  339489
    9301.04  439637  393945  346441
    9313.13  441324  397833  353884
    9325.29  443388  402135  361993
    9337.52  444525  405621  369615
    9349.84  446696  410089  378428
    9362.23  448106  413854  386808
    9374.69  450055  418131  395769
    9387.24  451368  421918  404434
    9399.86  453126  426048  413762
    9412.55  455152  430470  423524
    9425.32  456907  434779  433554
    9438.17  458537  438948  443501
    9451.09  460193  443147  453676

File: ni_metal_rt.xdi
# XDI/1.0 GSE/1.0
# Column.1: energy eV
# Column.2: mutrans
# Column.3: i0
# Element.edge: K
# Element.symbol: Ni
# Scan.edge_energy: 8333.0
# Mono.name: Si 111
# Mono.d_spacing: 3.13555
# Beamline.name: 13-ID-C
# Beamline.collimation: none
# Beamline.harmonic_rejection: detuned
# Facility.name: APS
# Facility.energy: 7.00 GeV
# Facility.xray_source: APS undulator A
# Scan.start_time: 2001-06-26T21:46:07
# Detector.I0: 10cm  N2
# Detector.I1: 10cm  N2
# Sample.name: Ni metal foil
# Sample.prep: standard foil (Joe Wong boxed set)
# ///
# room temperature
# measured at beamline 13-ID-C
# vert slits = 0.3 x 0.3mm (at ~50m)
#----
#   energy      mutrans          i0
  8133       -1.18734        151941.70
  8153       -1.18847        126260.70
  8173       -1.19165        117711.70
  8193       -1.20399        116417.70
  8213       -1.20818        115657.70
  8233       -1.21882        115894.70
  8253       -1.22349        116689.70
  8273       -1.23263        116288.70
  8293       -1.23439        116615.70
  8313       -1.23566        116211.70
  8314       -1.23648        119027.70
  8315       -1.23627        120604.70
  8316       -1.23518        120302.70
  8317       -1.23408        120275.70
  8318       -1.23305        120269.70
  8319       -1.23157        120457.70
  8320       -1.23036        120265.70
  8321       -1.22865        120327.70
  8322       -1.22629        119937.70
  8323       -1.22327        118335.70
  8324       -1.21947        119999.70
  8325       -1.2152        120532.70
  8326       -1.20857        119870.70
  8327       -1.19944        119980.70
  8328       -1.18519        119671.70
  8329       -1.15896        118924.70
  8330       -1.09213        118552.70
  8331      -0.927423        116606.70
  8332      -0.708663        111553.70
  8333      -0.515363        107993.70
  8334      -0.381829        134420.70
  8335      -0.316932        135548.70
  8336      -0.26735        124517.70
  8337      -0.190347        121364.70
  8338      -0.0946622    119817.70
  8339      -0.0124306    119793.70
  8340       0.0639022    119938.70
  8341       0.172438        120314.70
  8342       0.316943        120247.70
  8343       0.495251        120434.70
  8344       0.682529        120046.70
  8345       0.876861        119936.70
  8346        1.05102        120424.70
  8347        1.15777        120285.70
  8348        1.2001        120196.70
  8349        1.19759        119875.70
  8350        1.17207        120232.70
  8351        1.13627        119907.70
  8352        1.1157        120285.70
  8353        1.12796        120197.70
  8354        1.17797        119950.70
  8355        1.24733        120002.70
  8356        1.29965        120179.70
  8357        1.3121        119809.70
  8358        1.28833        119816.70
  8359.99        1.22483        120483.70
  8362.05        1.16957        120460.70
  8364.19        1.09623        120684.70
  8366.41        1.06175        120653.70
  8368.7        1.05257        120273.70
  8371.07        1.08277        120198.70
  8373.52        1.16056        120177.70
  8376.04        1.26511        120067.70
  8378.64        1.3721        120264.70
  8381.31        1.41769        120286.70
  8384.06        1.36177        120040.70
  8386.88        1.24204        119732.70
  8389.78        1.13506        119902.70
  8392.76        1.06411        120022.70
  8395.82        1.04781        119987.70
  8398.95        1.04649        120076.70
  8402.15        1.0301        119973.70
  8405.43        1.04614        119718.70
  8408.79        1.08098        118993.70
  8412.23        1.10668        120461.70
  8415.74        1.16419        119449.70
  8419.32        1.21846        119783.70
  8422.99        1.28345        119864.70
  8426.72        1.36248        119840.70
  8430.54        1.40465        119750.70
  8434.43        1.36274        119804.70
  8438.4        1.27134        119655.70
  8442.44        1.16974        113681.70
  8446.56        1.10382        121265.70
  8450.75        1.02489        120135.70
  8455.02       0.932569        119870.70
  8459.37       0.904979        119735.70
  8463.79       0.947201        119832.70
  8468.29        1.02554        119480.70
  8472.87        1.07997        120254.70
  8477.52        1.07109        119836.70
  8482.25        1.06389        119932.70
  8487.05        1.17413        120224.70
  8491.93        1.30386        120192.70
  8496.89        1.3458        119778.70
  8501.92        1.33678        119357.70
  8507.03        1.2449        119766.70
  8512.21        1.08594        119635.70
  8517.47       0.894429        119628.70
  8522.81       0.798003        119708.70
  8528.22       0.842037        119856.70
  8533.71       0.950201        119504.70
  8539.27        1.02885        119767.70
  8544.91        1.04123        119559.70
  8550.63        1.02433        119099.70
  8556.42       0.989472        119785.70
  8562.29       0.959138        119520.70
  8568.24        1.01155        119528.70
  8574.26        1.0943        119477.70
  8580.35        1.12936        119827.70
  8586.53        1.10917        119618.70
  8592.78        1.02081        119902.70
  8599.1       0.911323        120084.70
  8605.5       0.851996        119996.70
  8611.98       0.843667        119268.70
  8618.53       0.846391        118894.70
  8625.16       0.841959        119343.70
  8631.87       0.846589        119209.70
  8638.65       0.870614        119330.70
  8645.51       0.888055        119281.70
  8652.44       0.897472        119124.70
  8659.45       0.908796        119637.70
  8666.54       0.927867        119457.70
  8673.7       0.9191        119026.70
  8680.94       0.879214        120669.70
  8688.26       0.831512        119869.70
  8695.65       0.810865        119334.70
  8703.11       0.811626        118997.70
  8710.66       0.779517        119118.70
  8718.27       0.74556        119841.70
  8725.97       0.741491        119581.70
  8733.74       0.741275        118722.70
  8741.59       0.743594        121606.70
  8749.51       0.751723        120111.70
  8757.51       0.75876        119208.70
  8765.58       0.762949        119168.70
  8773.74       0.762802        119603.70
  8781.96       0.751294        119697.70
  8790.27       0.722095        118898.70
  8798.65       0.693912        122275.70
  8807.1       0.68599        118550.70
  8815.64       0.681205        119575.70
  8824.24       0.669973        119408.70
  8832.93       0.64948        118977.70
  8841.69       0.636035        119651.70
  8850.52       0.622481        119326.70
  8859.44       0.613435        119197.70
  8868.42       0.612931        120346.70
  8877.49       0.616209        119893.70
  8886.63       0.621684        120067.70
  8895.85       0.622749        118933.70
  8905.14       0.605964        118517.70
  8914.51       0.58294        119513.70
  8923.95       0.566657        119227.70
  8933.47       0.555275        119235.70
  8943.07       0.546761        118815.70
  8952.74       0.537523        118527.70
  8962.49       0.525883        119299.70
  8972.32       0.51204        119079.70
  8982.22       0.501465        119631.70
  8992.2       0.495004        119794.70
  9002.25       0.488898        119611.70
  9012.38       0.484987        119378.70
  9022.58       0.479791        119244.70
  9032.87       0.471505        117821.70
  9043.23       0.461347        119468.70
  9053.66       0.449379        119451.70
  9064.17       0.438025        118854.70
  9074.76       0.426822        118998.70
  9085.42       0.415528        119407.70
  9096.16       0.405638        119084.70
  9106.97       0.39503        119162.70
  9117.86       0.384237        119319.70
  9128.83       0.374058        119163.70
  9139.87       0.365852        119690.70
  9150.99       0.359158        118986.70
  9162.18       0.352031        119351.70
  9173.45       0.341724        119035.70
  9184.8       0.331778        119203.70
  9196.23       0.323588        119281.70
  9207.72       0.314228        119120.70
  9219.3       0.303398        119492.70
  9230.95       0.29257        119415.70
  9242.68       0.28233        118725.70
  9254.48       0.271524        119283.70
  9266.36       0.261795        119278.70
  9278.32       0.252187        119257.70
  9290.35       0.243166        118978.70
  9302.46       0.23459        119067.70
  9314.64       0.226093        119218.70
  9326.9       0.217238        119437.70
  9339.24       0.208344        119281.70
  9351.65       0.198766        119692.70
  9364.14       0.189321        119733.70
  9376.7       0.180255        119681.70
  9389.34       0.170166        118495.70
  9402.06       0.160564        119765.70
  9414.85       0.150504        119144.70
  9427.72       0.140708        119304.70
  9440.66       0.13037        119313.70
  9453.69       0.120841        118924.70
  9466.78       0.11186        118931.70
  9479.95       0.102548        118797.70
  9493.2       0.0928862    119247.70
  9506.53       0.0832378    119517.70
  9519.93       0.0740729    119188.70
  9533.41       0.0655452    118855.70
  9546.96       0.0549466    119623.70
  9560.59       0.0449656    119914.70
  9567.43       0.0406834    119512.70

File: Ni_metal_rt_01.xdi
# XDI/1.0
# Column.1: energy eV
# Column.2: i0
# Column.3: itrans
# Beamline.name: APS 13-ID-C
# Beamline.notes: vert slits = 0.3mm
# Detector.I0: N2 10cm
# Detector.I1: N2 10cm
# Element.edge: K
# Element.symbol: Ni
# Mono.d_spacing: 3.13550
# Mono.name: Si(111)
# Mono.notes: focussed, detuned 50%
# Sample.formula: Ni
# Sample.name: Ni foil  Room Temperature
# Sample.prep: metal foil
# Sample.reference: none
# Sample.temperature: Room Temperature
# Scan.start_time: 2001-06-26 21:46:07
# ///
#    Note: mono d_spacing is nominal!
#     data from ni_foil.001
#     418 E XMU I0
#-------------
#   energy   i0   itrans
    8133  151942  498119
    8153  126261  414394
    8173  117712  387568
    8193  116418  388066
    8213  115658  387150
    8233  115895  392096
    8253  116690  396633
    8273  116289  398899
    8293  116616  400723
    8313  116212  399842
    8314  119028  409867
    8315  120605  415212
    8316  120303  413722
    8317  120276  413173
    8318  120270  412728
    8319  120458  412761
    8320  120266  411606
    8321  120328  411113
    8322  119938  408813
    8323  118336  402139
    8324  120000  406246
    8325  120533  406311
    8326  119871  401410
    8327  119981  398126
    8328  119672  391484
    8329  118925  378966
    8330  118553  353361
    8331  116607  294780
    8332  111554  226596
    8333  107994  180808
    8334  134421  196921
    8335  135549  186096
    8336  124518  162682
    8337  121365  146811
    8338  119818  131714
    8339  119794  121292
    8340  119939  112514
    8341  120315  101258
    8342  120248  87585.1
    8343  120435  73395.1
    8344  120047  60664.1
    8345  119937  49904.1
    8346  120425  42098.1
    8347  120286  37792.1
    8348  120197  36199.1
    8349  119876  36193.1
    8350  120233  37239.1
    8351  119908  38492.1
    8352  120286  39416.1
    8353  120198  38907.1
    8354  119951  36933.1
    8355  120003  34473.1
    8356  120180  32764.1
    8357  119810  32259.1
    8358  119817  33037.1
    8359.99  120484  35399.1
    8362.05  120461  37403.1
    8364.19  120685  40324.1
    8366.41  120654  41728.1
    8368.7  120274  41980.1
    8371.07  120199  40706.1
    8373.52  120178  37653.1
    8376.04  120068  33884.1
    8378.64  120265  30496.1
    8381.31  120287  29142.1
    8384.06  120041  30755.1
    8386.88  119733  34578.1
    8389.78  119903  38537.1
    8392.76  120023  41412.1
    8395.82  119988  42080.1
    8398.95  120077  42167.1
    8402.15  119974  42827.1
    8405.43  119719  42056.1
    8408.79  118994  40370.1
    8412.23  120462  39831.1
    8415.74  119450  37289.1
    8419.32  119784  35418.1
    8422.99  119865  33212.1
    8426.72  119841  30682.1
    8430.54  119751  29393.1
    8434.43  119805  30665.1
    8438.4  119656  33558.1
    8442.44  113682  35292.1
    8446.56  121266  40212.1
    8450.75  120136  43109.1
    8455.02  119871  47174.1
    8459.37  119736  48439.1
    8463.79  119833  46474.1
    8468.29  119481  42846.1
    8472.87  120255  40839.1
    8477.52  119837  41060.1
    8482.25  119933  41390.1
    8487.05  120225  37160.1
    8491.93  120193  32630.1
    8496.89  119779  31182.1
    8501.92  119358  31354.1
    8507.03  119767  34489.1
    8512.21  119636  40387.1
    8517.47  119629  48909.1
    8522.81  119709  53896.1
    8528.22  119857  51638.1
    8533.71  119505  46208.1
    8539.27  119768  42807.1
    8544.91  119560  42207.1
    8550.63  119100  42761.1
    8556.42  119786  44533.1
    8562.29  119521  45803.1
    8568.24  119529  43467.1
    8574.26  119478  39998.1
    8580.35  119828  38733.1
    8586.53  119619  39454.1
    8592.78  119903  43201.1
    8599.1  120085  48273.1
    8605.5  119997  51186.1
    8611.98  119269  51301.1
    8618.53  118895  51001.1
    8625.16  119344  51421.1
    8631.87  119210  51126.1
    8638.65  119331  49963.1
    8645.51  119282  49079.1
    8652.44  119125  48555.1
    8659.45  119638  48215.1
    8666.54  119458  47233.1
    8673.7  119027  47477.1
    8680.94  120670  50091.1
    8688.26  119870  52190.1
    8695.65  119335  53041.1
    8703.11  118998  52851.1
    8710.66  119119  54631.1
    8718.27  119842  56861.1
    8725.97  119582  56969.1
    8733.74  118723  56572.1
    8741.59  121607  57812.1
    8749.51  120112  56639.1
    8757.51  119209  55819.1
    8765.58  119169  55567.1
    8773.74  119604  55778.1
    8781.96  119698  56468.1
    8790.27  118899  57753.1
    8798.65  122276  61091.1
    8807.1  118551  59701.1
    8815.64  119576  60506.1
    8824.24  119409  61104.1
    8832.93  118978  62144.1
    8841.69  119652  63342.1
    8850.52  119327  64032.1
    8859.44  119198  64544.1
    8868.42  120347  65199.1
    8877.49  119894  64741.1
    8886.63  120068  64481.1
    8895.85  118934  63804.1
    8905.14  118518  64657.1
    8914.51  119514  66719.1
    8923.95  119228  67652.1
    8933.47  119236  68431.1
    8943.07  118816  68773.1
    8952.74  118528  69243.1
    8962.49  119300  70510.1
    8972.32  119080  71361.1
    8982.22  119632  72454.1
    8992.2  119795  73023.1
    9002.25  119612  73358.1
    9012.38  119379  73502.1
    9022.58  119245  73802.1
    9032.87  117822  73528.1
    9043.23  119469  75317.1
    9053.66  119452  76213.1
    9064.17  118855  76698.1
    9074.76  118999  77656.1
    9085.42  119408  78808.1
    9096.16  119085  79376.1
    9106.97  119163  80275.1
    9117.86  119320  81253.1
    9128.83  119164  81977.1
    9139.87  119691  83018.1
    9150.99  118987  83084.1
    9162.18  119352  83935.1
    9173.45  119036  84580.1
    9184.8  119204  85546.1
    9196.23  119282  86306.1
    9207.72  119121  87000.1
    9219.3  119493  88222.1
    9230.95  119416  89125.1
    9242.68  118726  89522.1
    9254.48  119284  90920.1
    9266.36  119279  91805.1
    9278.32  119258  92675.1
    9290.35  118979  93296.1
    9302.46  119068  94170.1
    9314.64  119219  95094.1
    9326.9  119438  96116.1
    9339.24  119282  96848.1
    9351.65  119693  98117.1
    9364.14  119734  99082.1
    9376.7  119682  99941.1
    9389.34  118496  99954.1
    9402.06  119766  102000
    9414.85  119145  102497
    9427.72  119305  103645
    9440.66  119314  104730
    9453.69  118925  105388
    9466.78  118932  106345
    9479.95  118798  107219
    9493.2  119248  108670
    9506.53  119518  109972
    9519.93  119189  110679
    9533.41  118856  111315
    9546.96  119624  113228
    9560.59  119915  114642
    9567.43  119513  114748