Folder: XASDataLibrary/data/Ni (part 4)

File: NiOH2_rt_03.xdi
# XDI/1.0
# Column.1: energy eV
# Column.2: i0
# Column.3: itrans
# Column.4: irefer
# Beamline.name: SSRL 4-1
# Detector.I0: N2 15cm
# Detector.I1: N2 30cm
# Detector.I2: N2 15cm
# Element.edge: K
# Element.symbol: Ni
# Mono.d_spacing: 3.13550
# Mono.name: Si(111)
# Mono.notes: unfocused, detuned 25%,counter clockwise
# Sample.formula: Ni_OH_2
# Sample.name: Ni(OH)2   nickel hydroxide
# Sample.prep: powder, mixed 1:100 with B(OH)3 by wt
# Sample.reference: none
# Sample.temperature: room temperature
# Scan.start_time: 1997-01-17 15:07:08
# ///
#    Note: mono d_spacing is nominal!
#     exafs to K17
#     435  E XMU XMUR I0
#-------------
#   energy   i0   itrans  irefer
    8110  218864  176692  500888
    8130  218234  178397  508664
    8150  217794  180278  517669
    8170  217031  181874  527268
    8190  216303  183506  537418
    8210  215487  185046  547790
    8230  214929  186801  558820
    8250  214041  188278  569574
    8270  212900  189490  579722
    8290  211445  190376  589312
    8310  211418  192433  597948
    8311  211360  192505  599811
    8312  211288  192534  601019
    8313  210956  192342  602063
    8314  210897  192353  603054
    8315  210838  192402  604069
    8316  210821  192524  604483
    8317  211264  193014  605804
    8318  210945  192856  605621
    8319  210908  192886  605782
    8320  210153  192281  604429
    8321  208833  191122  601653
    8322  206641  189220  596999
    8323  204481  187333  592847
    8324  202153  185299  588619
    8325  201614  184894  586874
    8326  202945  186121  587215
    8327  205511  188476  589156
    8328  208368  191119  587703
    8329  210478  193057  580003
    8330  211366  193912  564154
    8331  211137  193607  538319
    8332  210913  193260  506488
    8333  210771  193038  463932
    8334  210375  192665  386513
    8335  210113  192419  325884
    8336  209872  191950  287939
    8337  209475  190923  261860
    8338  209297  189619  239614
    8339  209133  187617  216181
    8340  209184  184993  192778
    8341  209628  181751  169535
    8342  209353  177381  146390
    8343  209545  173041  123441
    8344  209433  167984  100903
    8345  209619  162307  80616.1
    8346  209644  155238  62915.1
    8347  209741  148489  49948.1
    8348  209795  143200  41547.1
    8349  209434  140143  37429.1
    8350  209309  139590  36282.1
    8351  209217  140475  36727.1
    8352  208870  142316  37853.1
    8353  209309  145756  39143.1
    8354  208893  148965  39510.1
    8355  208858  152003  38917.1
    8356  208890  154546  37685.1
    8357  208662  156367  36530.1
    8358  208575  158008  36112.1
    8359  208820  159375  36636.1
    8360  208653  159913  37658.1
    8361  208823  160123  38836.1
    8362  208703  159745  39901.1
    8363  208531  159234  41062.1
    8364  208321  158832  42319.1
    8365  208904  159400  43867.1
    8366  208449  159541  45095.1
    8367  208539  160291  46119.1
    8368  208499  161098  46852.1
    8369  208335  161812  47282.1
    8370  208248  162676  47490.1
    8371.78  208444  164391  46926.1
    8373.65  208440  165474  44889.1
    8375.58  208246  165735  41590.1
    8377.6  208436  165525  38026.1
    8379.69  208387  164393  34674.1
    8381.85  208745  163349  32909.1
    8384.1  208363  161587  33265
    8386.42  208461  160121  35798
    8388.81  208461  158826  39492
    8391.28  208492  157890  43079.9
    8393.83  208318  157154  45605.9
    8396.46  208549  157214  46648.9
    8399.16  208714  157967  47025.8
    8401.94  208857  159103  47958.8
    8404.78  208996  160314  48420.7
    8407.72  209150  161295  47503.7
    8410.72  209305  162136  46290.6
    8413.81  209729  163107  45053.5
    8416.96  209488  163546  42851.5
    8420.2  209952  164585  40821.4
    8423.51  210437  165760  38652.4
    8426.89  210486  166498  36033.3
    8430.36  211184  167477  34380.2
    8433.9  211041  167584  34847.1
    8437.51  211408  167990  37653
    8441.21  211428  168310  41616
    8444.97  212256  169506  45872.9
    8448.82  212201  170068  49170.8
    8452.74  212914  171203  54311.7
    8456.74  212889  171281  59124.6
    8460.81  213514  171357  60094.5
    8464.96  213897  171227  57168.3
    8469.19  214145  171525  52960.2
    8473.49  214811  172307  50393.1
    8477.87  215194  172787  50733
    8482.33  215699  173544  51361.9
    8486.85  215964  174431  47302.8
    8491.47  216606  175893  41446.6
    8496.15  216867  177302  39059.5
    8500.91  217833  179332  39343.4
    8505.75  218050  180554  42058.2
    8510.66  218608  181540  48646.1
    8515.65  219260  182136  59132.9
    8520.71  219875  182773  70275.8
    8525.86  220249  183490  73430.6
    8531.07  220864  184507  67714.5
    8536.37  221510  185512  61029.3
    8541.74  222111  186390  57605.1
    8547.19  222784  187418  57899
    8552.71  223355  188737  59805.8
    8558.31  224041  190422  62705.7
    8563.99  224830  191827  64673.5
    8569.74  225372  192621  60835.3
    8575.57  225884  193452  56280.1
    8581.47  226419  194502  54706.9
    8587.45  227439  196081  56549.7
    8593.51  228098  197215  62401.6
    8599.64  228762  198367  70410.4
    8605.85  229381  199546  76297.2
    8612.14  229903  200775  78043
    8618.5  230430  202245  78576.7
    8624.94  231054  204009  79564.5
    8631.45  232807  206508  80440.3
    8638.05  233592  207906  79385.1
    8644.71  234402  209298  78174.9
    8651.46  234998  210596  77813.7
    8658.28  235925  212079  77599.4
    8665.17  236936  213533  76767.2
    8672.15  237678  214801  76769
    8679.19  238748  216489  79971.7
    8686.32  239301  217803  84929.5
    8693.52  240084  219536  89187.2
    8700.81  241100  221609  90637
    8708.16  241692  223134  92741.8
    8715.58  242878  225099  98103.5
    8723.1  243860  226877  100789
    8730.68  244667  228571  102020
    8738.34  245650  230410  102822
    8746.08  246936  232517  103267
    8753.89  247789  234184  103380
    8761.77  248626  235880  103619
    8769.74  249475  237637  104134
    8777.78  250491  239741  105412
    8785.9  251518  241860  108465
    8794.09  252382  243776  113318
    8802.36  253038  245473  117179
    8810.7  254500  247895  119472
    8819.13  255133  249491  121160
    8827.63  251296  246776  122078
    8836.2  256186  252608  128094
    8844.85  259289  256717  132250
    8853.59  259880  258412  135267
    8862.38  260571  260355  137730
    8871.27  261723  262660  139132
    8880.22  262693  264851  139903
    8889.26  263649  267043  140287
    8898.37  264808  269475  142070
    8907.55  265946  271865  146617
    8916.81  266771  273924  151835
    8926.15  267774  276164  155971
    8935.57  268611  278254  159361
    8945.06  269506  280393  162502
    8954.62  270858  283017  166274
    8964.26  272258  285795  170296
    8973.98  272854  287770  174292
    8983.78  274048  290378  178208
    8993.65  274855  292562  181337
    9003.6  275880  295008  184506
    9013.63  276807  297392  187315
    9023.73  278473  300571  190777
    9033.9  278887  302415  194160
    9044.16  280414  305479  198701
    9054.49  280946  307462  203047
    9064.89  281542  309572  207643
    9075.38  283068  312726  212645
    9085.93  282201  313266  216162
    9096.57  284948  317847  222362
    9107.28  286010  320536  227437
    9118.07  287532  323796  233053
    9128.93  287345  325158  237257
    9139.87  289256  328855  242592
    9150.89  289915  331154  246577
    9161.98  290993  333936  251162
    9173.15  292075  336778  256464
    9184.4  292720  339120  261723
    9195.72  294264  342562  267532
    9207.11  294244  344226  272090
    9218.59  295412  347217  278237
    9230.13  296507  350224  284704
    9241.76  295324  350481  288919
    9253.47  298092  355447  296994
    9265.25  297880  356854  302224
    9277.1  299994  361175  309872
    9289.03  300730  363805  316042
    9301.04  301514  366482  322052
    9313.13  302959  370011  328913
    9325.29  303248  372158  334797
    9337.52  304338  375286  341743
    9349.84  305043  377980  348614
    9362.23  305831  380776  355742
    9374.69  306700  383756  363110
    9387.24  307582  386737  370627
    9399.86  308386  389638  378315
    9412.55  309031  392374  385982
    9425.32  310334  395903  394763
    9438.17  311353  399173  403319
    9451.09  311777  401659  411242

File: NiS_rt_01.xdi
# XDI/1.0
# Column.1: energy eV
# Column.2: i0
# Column.3: itrans
# Column.4: irefer
# Beamline.name: SSRL 4-1
# Detector.I0: N2 15cm
# Detector.I1: N2 30cm
# Detector.I2: N2 15cm
# Element.edge: K
# Element.symbol: Ni
# Mono.d_spacing: 3.13550
# Mono.name: Si(111)
# Mono.notes: unfocused, detuned 25%,counter clockwise
# Sample.formula: NiS
# Sample.name: NiS   nickel sulfide
# Sample.prep: powder, mixed 1:150 with B(OH)3 by wt
# Sample.reference: none
# Sample.temperature: room temperature
# Scan.start_time: 1997-01-17 13:11:19
# ///
#    Note: mono d_spacing is nominal!
#     exafs to K17
#     507  E XMU XMUR I0
#-------------
#   energy   i0   itrans  irefer
    8110  235472  111448  406519
    8130  234917  112977  413331
    8150  234244  114484  419698
    8170  233673  116057  425983
    8190  232898  117514  431770
    8210  232058  118958  437509
    8230  231055  120306  443101
    8250  230751  122003  448975
    8270  229467  123175  454146
    8290  227818  124086  458881
    8310  227593  125719  463810
    8311  227874  125955  465115
    8312  227373  125771  465593
    8313  227021  125638  466161
    8314  226964  125673  466766
    8315  226741  125628  467386
    8316  226837  125754  467780
    8317  227017  125918  468072
    8318  227075  126018  468297
    8319  227015  126039  468405
    8320  226591  125862  468282
    8321  225379  125214  467317
    8322  223218  124058  465921
    8323  220652  122738  464653
    8324  218027  121366  463922
    8325  216915  120718  463254
    8326  217547  120921  462699
    8327  220243  122260  462703
    8328  223228  123825  461989
    8329  225837  125173  458558
    8330  227083  125537  451561
    8331  227605  125050  433170
    8332  227189  123700  390372
    8333  226917  122289  329910
    8334  226543  120347  263619
    8335  226421  117972  213623
    8336  226318  114663  180502
    8337  225695  110302  157207
    8338  225602  106356  139577
    8339  225253  102741  123203
    8340  225585  100041  108644
    8341  225035  97305.6  94627.1
    8342  225191  95422.6  82381.1
    8343  225330  94109.6  70770.1
    8344  225416  93216.6  59299.1
    8345  225966  92826.6  49025.1
    8346  225966  92250.6  39665.1
    8347  225929  91585.6  32476.1
    8348  225966  90910.6  27458.1
    8349  225714  90208.6  24659.1
    8350  225465  89584.6  23495.1
    8351  225142  88953.6  23257.1
    8352  225366  88593.6  23533.1
    8353  225055  88031.6  23753.1
    8354  225111  87637.6  23606.1
    8355  225064  87267.6  22924.1
    8356  224888  86950.6  21845.1
    8357  224791  86808.6  20821.1
    8358  224674  86766.6  20144.1
    8359  224947  86944.6  20100.1
    8360  224687  87000.6  20485.1
    8361  224518  87166.6  21108.1
    8362  224922  87594.6  21838.1
    8363  224707  87845.6  22581.1
    8364  224609  88106.6  23372.1
    8365  224698  88437.6  24247.1
    8366  224716  88665.6  25023.1
    8367  224517  88759.6  25567.1
    8368  224745  88977.6  25971.1
    8369  224712  89065.6  26176.1
    8370  224532  89111.6  26229.1
    8371.43  224711  89406.5  26052.1
    8372.91  224864  89781.2  25383.1
    8374.43  224983  90212.7  24291
    8376  225249  90735  22993.9
    8377.63  225926  91467.1  21548.8
    8379.3  226299  92049  20169.7
    8381.03  227317  92851.7  19275.6
    8382.8  227898  93427.1  19008.5
    8384.62  228906  94071.4  19625.3
    8386.5  230028  94634.5  21072.1
    8388.42  231028  95019.4  22978.9
    8390.39  232194  95296.1  24998.7
    8392.4  233909  95678.5  26839.4
    8394.47  235217  95858.8  28085.2
    8396.58  236829  96131.9  28673.9
    8398.75  238480  96447.8  28843.6
    8400.97  240586  96988.4  29209.2
    8403.23  242463  97527.9  29673.9
    8405.55  244346  98157.2  29792.5
    8407.91  246846  99158.2  29460.1
    8410.32  249259  100247  29035.7
    8412.79  251939  101545  28757.3
    8415.3  254568  102861  28152.9
    8417.85  256694  104063  27240.4
    8420.46  260006  105883  26540.9
    8423.12  262616  107506  25707.4
    8425.83  265711  109377  24688.9
    8428.59  268808  111290  23735.3
    8431.4  272136  113291  23425.8
    8434.25  275674  115338  24196.2
    8437.16  279394  117389  26045.6
    8440.11  282748  119250  28523.9
    8443.11  286549  121334  31413.3
    8446.17  290732  123620  34138.6
    8449.26  294585  125697  36550
    8452.42  298778  127764  39940.3
    8455.62  302719  129511  43712.5
    8458.86  307431  131463  46305.8
    8462.16  311336  133016  46566
    8465.52  315443  134598  45033.2
    8468.91  320410  136535  42959.4
    8472.35  325665  138665  41342.6
    8475.85  330146  140627  41160.8
    8479.4  334895  142854  42424.9
    8482.99  339825  145281  43160
    8486.63  344884  147884  41088.1
    8490.33  350235  150721  37290.2
    8494.07  355472  153593  34936.3
    8497.86  361168  156778  34625.3
    8501.7  366695  160020  35489.3
    8505.59  372082  163309  37951.3
    8509.52  377873  166897  42852.3
    8513.51  383868  170553  50419.3
    8517.55  389375  173859  60220.2
    8521.64  395342  177183  69183.1
    8525.77  401454  180483  72631
    8529.95  408147  184008  69935.9
    8534.19  414390  187297  64990.7
    8538.47  420878  190664  61316.6
    8542.8  427635  194086  60052.4
    8547.19  434153  197215  61116.2
    8551.62  440774  200354  63279
    8556.1  447830  203783  66041.7
    8560.63  454463  207192  69495.5
    8565.21  462122  211274  71223.2
    8569.83  468457  214964  68468.9
    8574.51  475900  219300  65099.6
    8579.24  483182  223736  63763.3
    8584.01  490516  228285  64580.9
    8588.83  498142  233024  68259.5
    8593.71  505661  237704  75236.1
    8598.63  512819  242211  84182.7
    8603.6  520647  247053  92476.3
    8608.63  528928  252057  97802.8
    8613.7  535986  256454  99877.3
    8618.82  542562  260584  101471
    8623.98  550239  265274  103573
    8629.21  557323  269619  105510
    8634.47  569438  276405  107227
    8639.79  577680  281292  107068
    8645.16  586344  286383  107164
    8650.57  594584  291290  108009
    8656.03  603000  296386  109172
    8661.55  611167  301469  109848
    8667.11  620441  307157  110199
    8672.73  629882  313076  112166
    8678.39  638576  318724  117064
    8684.1  647414  324552  124260
    8689.85  655691  330278  131954
    8695.67  665166  336778  137586
    8701.52  674992  343517  140684
    8707.43  684439  350011  144973
    8713.39  694035  356453  153035
    8719.4  702763  362431  160402
    8725.45  713091  369256  164363
    8731.55  722520  375653  167861
    8737.7  732276  382256  170776
    8743.91  741966  388872  173169
    8750.16  751413  395400  175228
    8756.46  758726  400929  176776
    8762.82  766573  406849  178767
    8769.22  775346  413274  181224
    8775.66  784230  419823  184261
    8782.16  792521  426139  188911
    8788.71  802116  433193  196429
    8795.31  811492  440267  205600
    8801.95  821859  447912  213582
    8808.65  831251  455149  219042
    8815.39  840830  462519  223668
    8822.19  850289  469966  229237
    8829.03  843298  468279  232402
    8835.92  869952  485466  245798
    8842.86  884639  495840  254383
    8849.86  894992  504017  261866
    8856.89  904787  511898  269073
    8863.99  915317  520186  275225
    8871.12  925569  528428  279834
    8878.31  936896  537306  284037
    8885.55  946968  545585  287172
    8892.83  957915  554508  291054
    8900.17  968534  563351  297567
    8907.55  978514  571879  307942
    8914.98  990495  581629  320448
    8922.47  1.00159e+06  591037  331287
    8930  1.01157e+06  599782  340490
    8937.58  1.01976e+06  607593  348585
    8945.21  1.03237e+06  618068  357926
    8952.89  1.04483e+06  628514  367936
    8960.62  1.05491e+06  637628  377409
    8968.4  1.06688e+06  647989  388426
    8976.22  1.07725e+06  657484  399079
    8984.1  1.08818e+06  667323  409241
    8992.03  1.09945e+06  677512  418895
    9000  1.11044e+06  687607  428211
    9008.02  1.12225e+06  698297  437780
    9016.1  1.13367e+06  708816  446685
    9024.23  1.14447e+06  719105  456133
    9032.4  1.15395e+06  728691  466401
    9040.61  1.1658e+06  739796  478424
    9048.89  1.1773e+06  750768  490938
    9057.2  1.18751e+06  761035  504007
    9065.58  1.1974e+06  771401  517149
    9073.99  1.20908e+06  782634  530494
    9082.46  1.21868e+06  792873  543640
    9090.98  1.22847e+06  803232  557251
    9099.55  1.24377e+06  817342  573248
    9108.16  1.25625e+06  829623  588548
    9116.83  1.2699e+06  842841  604793
    9125.54  1.27742e+06  852151  618447
    9134.3  1.28959e+06  864605  633675
    9143.11  1.30216e+06  877508  648358
    9151.98  1.31425e+06  890235  662658
    9160.89  1.32593e+06  902708  677440
    9169.84  1.33785e+06  915527  693500
    9178.86  1.34814e+06  927274  710063
    9187.92  1.35882e+06  939355  726741
    9197.02  1.3697e+06  951747  743267
    9206.18  1.3797e+06  963567  759758
    9215.39  1.3916e+06  976849  778593
    9224.64  1.4027e+06  989710  797998
    9233.94  1.41491e+06  1.00341e+06  818391
    9243.3  1.41697e+06  1.0101e+06  833046
    9252.7  1.43726e+06  1.02971e+06  858588
    9262.15  1.4389e+06  1.03623e+06  873421
    9271.65  1.46195e+06  1.05804e+06  901241
    9281.2  1.47286e+06  1.07139e+06  922001
    9290.8  1.48386e+06  1.08494e+06  942909
    9300.45  1.49669e+06  1.09987e+06  964887
    9310.15  1.50749e+06  1.11344e+06  985654
    9319.9  1.51904e+06  1.12777e+06  1.00785e+06
    9329.69  1.53025e+06  1.14185e+06  1.03034e+06
    9339.54  1.53996e+06  1.15496e+06  1.05268e+06
    9349.43  1.55135e+06  1.16952e+06  1.07681e+06
    9359.38  1.56278e+06  1.1842e+06  1.10164e+06
    9369.37  1.5729e+06  1.19798e+06  1.12604e+06
    9379.41  1.58405e+06  1.21265e+06  1.15141e+06
    9389.5  1.59411e+06  1.22658e+06  1.17677e+06
    9399.65  1.60572e+06  1.24185e+06  1.20403e+06
    9409.83  1.61577e+06  1.25602e+06  1.23056e+06
    9420.08  1.62656e+06  1.27092e+06  1.25866e+06
    9430.37  1.6353e+06  1.28332e+06  1.28664e+06
    9440.7  1.64654e+06  1.29984e+06  1.31523e+06
    9451.09  1.6556e+06  1.31372e+06  1.34352e+06