Folder: XASDataLibrary/data/Pt

Note: README
The XAS Data Library is designed to hold X-ray Absorption Spectra (EXAFS
and XANES) using an SQLite database, with array data encoded using JSON.
The principle goal for the library is as a proposed standard for storing
and exchanging XAS data. The implementation here is intended for initial
reference and comments. 

The idea is provide a format and set of tools for managing Libraries of
XAFS Data, and to be able to share these libraries between different
researchers and different analysis programs.  As the the base format of the
library will be created with SQLite, the SQL syntax and any third party
software that can use SQL and SQLite will be able to explore the data in
the format.  In addition, reference implementations of programmatically
interecting with the library will be provided.  

Ideally, a stand-alone GUI Data Browser and an on-line Library will be
built upon such a format.

See http://xafs.org/XasDataLibrary for additional information.


--Matt Newville  18-Feb-2011

File: pt_metal_rt.xdi
# XDI/1.0 GSE/1.0
# Column.1: energy eV
# Column.2: time
# Column.3: itrans
# Column.4: i0
# Element.edge: L3
# Element.symbol: Pt
# Scan.edge_energy: 11563.0
# Mono.name: Si 111
# Mono.d_spacing: 3.13555
# Beamline.name: 13-ID-C
# Beamline.collimation: none
# Beamline.harmonic_rejection: detuned
# Facility.name: APS
# Facility.energy: 7.00 GeV
# Facility.xray_source: APS undulator A
# Scan.start_time: 2001-06-27T04:10:45
# Detector.I0: 10cm  N2
# Detector.I1: 10cm  N2
# Sample.name: Pt metal foil
# Sample.prep: standard foil (Joe Wong boxed set)
# ///
# room temperature
# measured at beamline 13-ID-C
# vert slits = 0.3 x 0.3mm (at ~50m)
#----
#   energy    time      itrans        i0
    11364.00    1.00    332768.1    56237.70
    11384.00    1.00    291573.1    48899.70
    11404.00    1.00    293120.1    48672.70
    11424.00    1.00    293538.1    48282.70
    11444.00    1.00    293874.1    47946.70
    11464.00    1.00    299680.1    48412.70
    11484.00    1.00    309614.1    49718.70
    11504.00    1.00    309855.1    49579.70
    11524.00    1.00    311887.1    50213.70
    11544.00    1.00    288807.1    49522.70
    11545.00    1.00    284429.1    49112.70
    11546.00    1.00    282014.1    49210.70
    11547.00    1.00    280767.1    49577.70
    11548.00    1.00    278290.1    49835.70
    11549.00    1.00    272145.1    49445.70
    11550.00    1.00    267897.1    49616.70
    11551.00    1.00    259535.1    49173.70
    11552.00    1.00    253467.1    49461.70
    11553.00    1.00    245026.1    49481.70
    11554.00    1.00    235515.1    49670.70
    11555.00    1.00    220615.1    49202.70
    11556.00    1.00    204017.1    48986.70
    11557.00    1.00    186180.1    49849.70
    11558.00    1.00    160335.1    49594.70
    11559.00    1.00    127358.1    48848.70
    11560.00    1.00    95184.10    49602.70
    11561.00    1.00    58616.10    49678.70
    11562.00    1.00    31563.10    49480.70
    11563.00    1.00    16410.10    49015.70
    11564.00    1.00    11388.10    49760.70
    11565.00    1.00    11108.10    49399.70
    11566.00    1.00    13381.10    49872.70
    11567.00    1.00    16054.10    49597.70
    11568.00    1.00    18606.10    49267.70
    11569.00    1.00    20947.10    49480.70
    11570.00    1.00    22652.10    49278.70
    11571.00    1.00    24613.10    49971.70
    11572.00    1.00    25559.10    49167.70
    11573.00    1.00    26217.10    48966.70
    11574.00    1.00    26469.10    49321.70
    11575.00    1.00    25812.10    49071.70
    11576.00    1.00    25294.10    49878.70
    11577.00    1.00    24246.10    49752.70
    11578.00    1.00    23633.10    49952.70
    11579.00    1.00    23332.10    49434.70
    11580.00    1.00    24078.10    49637.70
    11581.00    1.00    24905.10    48902.70
    11582.00    1.00    26613.10    49932.70
    11583.00    1.00    27110.10    49572.70
    11584.00    1.00    27326.10    49539.70
    11585.00    1.00    27159.10    49279.70
    11586.00    1.00    27053.10    49465.70
    11587.00    1.00    26496.10    49383.70
    11588.00    1.00    25552.10    49382.70
    11589.00    1.00    24094.10    49014.70
    11590.99    1.00    21456.10    49150.70
    11593.05    1.00    20615.10    49480.70
    11595.19    1.00    21860.10    49155.70
    11597.41    1.00    23882.10    49481.70
    11599.70    1.00    24749.10    49173.70
    11602.07    1.00    25584.10    49781.70
    11604.52    1.00    26541.10    49578.70
    11607.04    1.00    26987.10    49723.70
    11609.64    1.00    25988.10    49968.70
    11612.31    1.00    24440.10    50059.70
    11615.06    1.00    22368.10    49013.70
    11617.88    1.00    21740.10    49559.70
    11620.79    1.00    22042.10    49606.70
    11623.76    1.00    22705.10    49542.70
    11626.82    1.00    23652.10    49998.70
    11629.95    1.00    24326.10    50237.70
    11633.15    1.00    24621.10    49847.70
    11636.43    1.00    25643.10    50132.70
    11639.79    1.00    26538.10    49614.70
    11643.23    1.00    27454.10    49796.70
    11646.74    1.00    27875.10    49917.70
    11650.32    1.00    27376.10    49468.70
    11653.99    1.00    26536.10    49888.70
    11657.72    1.00    24789.10    48656.70
    11661.54    1.00    24894.10    50011.70
    11665.43    1.00    24710.10    49572.70
    11669.40    1.00    25119.10    49858.70
    11673.44    1.00    25271.10    49564.70
    11677.56    1.00    25386.10    49536.70
    11681.75    1.00    25360.10    50023.70
    11686.02    1.00    24661.10    49292.70
    11690.37    1.00    24791.10    49337.70
    11694.79    1.00    25926.10    50012.70
    11699.29    1.00    26953.10    49645.70
    11703.87    1.00    27731.10    49161.70
    11708.52    1.00    28159.10    49572.70
    11713.25    1.00    27610.10    49501.70
    11718.05    1.00    26920.10    49615.70
    11722.93    1.00    26285.10    49527.70
    11727.89    1.00    25975.10    49604.70
    11732.92    1.00    25663.10    49364.70
    11738.03    1.00    25975.10    49718.70
    11743.21    1.00    25841.10    49292.70
    11748.47    1.00    25507.10    49283.70
    11753.81    1.00    25286.10    49426.70
    11759.22    1.00    26189.10    49942.70
    11764.71    1.00    27521.10    49971.70
    11770.27    1.00    28178.10    49707.70
    11775.91    1.00    28648.10    49827.70
    11781.63    1.00    28538.10    49415.70
    11787.42    1.00    28953.10    50031.70
    11793.29    1.00    28504.10    49588.70
    11799.24    1.00    27938.10    49516.70
    11805.26    1.00    27154.10    49710.70
    11811.35    1.00    26290.10    49298.70
    11817.53    1.00    26484.10    49837.70
    11823.78    1.00    26806.10    49345.70
    11830.10    1.00    28045.10    49705.70
    11836.50    1.00    29275.10    49693.70
    11842.98    1.00    29497.10    49128.70
    11849.54    1.00    30039.10    50242.70
    11856.16    1.00    29636.10    49824.70
    11862.87    1.00    29811.10    49511.70
    11869.65    1.00    29914.10    49334.70
    11876.51    1.00    29490.10    49311.70
    11883.44    1.00    29284.10    49870.70
    11890.45    1.00    28731.10    49764.70
    11897.54    1.00    28819.10    49893.70
    11904.70    1.00    29314.10    49510.70
    11911.94    1.00    30519.10    49604.70
    11919.26    1.00    31227.10    49559.70
    11926.65    1.00    31601.10    50013.70
    11934.11    1.00    31490.10    50000.70
    11941.66    1.00    31608.10    50193.70
    11949.27    1.00    31899.10    50172.70
    11956.97    1.00    32205.10    50145.70
    11964.74    1.00    32091.10    50294.70
    11972.59    1.00    31443.10    49737.70
    11980.51    1.00    31484.10    49824.70
    11988.51    1.00    31442.10    49702.70
    11996.58    1.00    31854.10    49904.70
    12004.74    1.00    32283.10    49376.70
    12012.96    1.00    33255.10    49193.70
    12021.27    1.00    34096.10    49468.70
    12029.65    1.00    34141.10    49434.70
    12038.10    1.00    32054.10    46602.70
    12046.63    1.00    34624.10    50490.70
    12055.24    1.00    34253.10    50100.70
    12063.93    1.00    34197.10    50013.70
    12072.69    1.00    34262.10    49942.70
    12081.52    1.00    34443.10    49978.70
    12090.44    1.00    35123.10    50220.70
    12099.42    1.00    35779.10    50287.70
    12108.49    1.00    36037.10    49910.70
    12117.63    1.00    36541.10    49815.70
    12126.85    1.00    37037.10    49720.70
    12136.14    1.00    37673.10    50152.70
    12145.51    1.00    37635.10    50095.70
    12154.95    1.00    37180.10    49501.70
    12164.47    1.00    37204.10    49607.70
    12174.07    1.00    37059.10    49467.70
    12183.74    1.00    37005.10    49237.70
    12193.49    1.00    37719.10    49791.70
    12203.32    1.00    37696.10    49107.70
    12213.22    1.00    38783.10    49662.70
    12223.20    1.00    39211.10    49429.70
    12233.25    1.00    39896.10    49793.70
    12243.38    1.00    40431.10    49844.70
    12253.58    1.00    41001.10    49846.70
    12263.87    1.00    41451.10    49862.70
    12274.22    1.00    41235.10    49390.70
    12284.66    1.00    41671.10    50010.70
    12295.17    1.00    41587.10    49968.70
    12305.75    1.00    41545.10    49840.70
    12316.42    1.00    42317.10    50277.70
    12327.16    1.00    42341.10    49525.70
    12337.97    1.00    43747.10    50164.70
    12348.86    1.00    44396.10    50238.70
    12359.83    1.00    44474.10    49761.70
    12370.87    1.00    44837.10    49689.70
    12381.99    1.00    45202.10    49592.70
    12393.18    1.00    46164.10    50182.70
    12404.45    1.00    45998.10    49670.70
    12415.80    1.00    45954.10    49365.70
    12427.22    1.00    46106.10    49263.70
    12438.72    1.00    46540.10    49495.70
    12450.30    1.00    47116.10    49683.70
    12461.95    1.00    47905.10    49999.70
    12473.68    1.00    48272.10    49703.70
    12485.48    1.00    48239.10    49021.70
    12497.36    1.00    48834.10    48916.70
    12509.32    1.00    49853.10    49356.70
    12521.35    1.00    50421.10    49406.70
    12533.46    1.00    51544.10    50043.70
    12545.64    1.00    52549.10    50617.70
    12557.90    1.00    53018.10    50639.70
    12570.24    1.00    52594.10    49919.70
    12582.65    1.00    52572.10    49557.70
    12595.14    1.00    53087.10    49590.70
    12607.70    1.00    53888.10    49751.70
    12620.34    1.00    54767.10    49986.70
    12633.06    1.00    55098.10    49706.70
    12645.85    1.00    55752.10    49641.70
    12658.72    1.00    56146.10    49405.70
    12671.66    1.00    56604.10    49211.70
    12684.69    1.00    57880.10    49874.70
    12697.78    1.00    57767.10    49313.70
    12710.96    1.00    58542.10    49583.70
    12724.20    1.00    59363.10    49880.70
    12737.53    1.00    59808.10    49769.70
    12750.93    1.00    60928.10    50209.70
    12764.41    1.00    60654.10    49441.70
    12777.96    1.00    62201.10    50114.70
    12791.59    1.00    62664.10    49955.70
    12798.43    1.00    62393.10    49469.70