Folder: XASDataLibrary/data/Se

Note: README
The XAS Data Library is designed to hold X-ray Absorption Spectra (EXAFS
and XANES) using an SQLite database, with array data encoded using JSON.
The principle goal for the library is as a proposed standard for storing
and exchanging XAS data. The implementation here is intended for initial
reference and comments. 

The idea is provide a format and set of tools for managing Libraries of
XAFS Data, and to be able to share these libraries between different
researchers and different analysis programs.  As the the base format of the
library will be created with SQLite, the SQL syntax and any third party
software that can use SQL and SQLite will be able to explore the data in
the format.  In addition, reference implementations of programmatically
interecting with the library will be provided.  

Ideally, a stand-alone GUI Data Browser and an on-line Library will be
built upon such a format.

See http://xafs.org/XasDataLibrary for additional information.


--Matt Newville  18-Feb-2011

File: se_znse_rt.xdi
# XDI/1.0 GSE/1.0
# Column.1: energy eV
# Column.2: time
# Column.3: i0
# Column.4: itrans
# Element.edge: K
# Element.symbol: Se
# Scan.edge_energy: 12658.0
# Mono.name: Si 111
# Mono.d_spacing: 3.13550
# Beamline.name: 13-BM-D
# Beamline.collimation: none
# Beamline.focusing: no
# Beamline.harmonic_rejection: Rh-coated mirror, detuned
# Facility.name: APS
# Facility.energy: 7.00 GeV
# Facility.xray_source: APS bending magnet
# Scan.start_time: 2008-04-10T18:41:21
# Detector.I0: 10cm  N2
# Detector.I1: 10cm  N2 (?)
# Sample.name: ZnSe
# Sample.prep: powder on tape, 6 layers
# ///
# room temperature
# measured at beamline 13-BM-D
#----
#   energy       time                i0           itrans
       12508.00       2.000000       120807.4       395711.4
       12523.00       2.000000       118891.4       390399.4
       12538.00       2.000000       119544.4       393981.4
       12553.00       2.000000       119062.4       393755.4
       12568.00       2.000000       119328.4       395925.4
       12583.00       2.000000       118963.4       395884.4
       12598.00       2.000000       119070.4       397268.4
       12613.00       2.000000       119102.4       398488.4
       12628.00       2.000000       119043.4       399056.4
       12643.00       2.000000       118855.4       397918.4
       12648.50       2.000000       119313.4       397278.4
       12649.25       2.000000       119290.4       396730.4
       12650.00       2.000000       119372.4       396185.4
       12650.75       2.000000       119379.4       395416.4
       12651.50       2.000000       119912.4       395852.4
       12652.25       2.000000       119906.4       394414.4
       12653.00       2.000000       119741.4       391649.4
       12653.75       2.000000       119626.4       388201.4
       12654.50       2.000000       119854.4       384318.4
       12655.25       2.000000       119907.4       378024.4
       12656.00       2.000000       119789.4       365416.4
       12656.75       2.000000       119726.4       343185.4
       12657.50       2.000000       119740.4       315616.4
       12658.25       2.000000       119692.4       286732.4
       12659.00       2.000000       119607.4       270367.4
       12659.75       2.000000       119554.4       265426.4
       12660.50       2.000000       119437.4       264934.4
       12661.25       2.000000       119549.4       266905.4
       12662.00       2.000000       119521.4       269752.4
       12662.75       2.000000       119437.4       273169.4
       12663.50       2.000000       119517.4       277803.4
       12664.25       2.000000       119485.4       283838.4
       12665.00       2.000000       120023.4       291396.4
       12665.75       2.000000       119960.4       298175.4
       12666.50       2.000000       120021.4       305636.4
       12667.25       2.000000       119949.4       311994.4
       12668.00       2.000000       119961.4       314506.4
       12668.75       2.000000       119947.4       313575.4
       12669.50       2.000000       119729.4       310147.4
       12670.25       2.000000       119746.4       306505.4
       12671.00       2.000000       119764.4       303775.4
       12671.75       2.000000       119734.4       302709.4
       12672.50       2.000000       119798.4       302754.4
       12673.25       2.000000       119720.4       302936.4
       12674.00       2.000000       119694.4       303725.4
       12674.75       2.000000       119593.4       304875.4
       12675.50       2.000000       119663.4       306888.4
       12676.25       2.000000       119468.4       307821.4
       12677.00       2.000000       119675.4       309055.4
       12677.75       2.000000       119566.4       308991.4
       12678.50       2.000000       120138.4       310208.4
       12679.25       2.000000       120001.4       309469.4
       12680.00       2.000000       119997.4       308841.4
       12680.75       2.000000       119938.4       308080.4
       12681.50       2.000000       120094.4       307983.4
       12682.25       2.000000       120011.4       307400.4
       12683.00       2.000000       119874.4       306868.4
       12683.75       2.000000       119939.4       307443.4
       12684.50       2.000000       119840.4       308010.4
       12685.25       2.000000       119792.4       309237.4
       12686.00       2.000000       119783.4       310456.4
       12686.75       2.000000       119823.4       311461.4
       12687.50       2.000000       119731.4       311562.4
       12688.86       2.000000       119636.4       310768.4
       12691.52       2.000000       119553.4       308446.4
       12694.28       2.000000       119584.4       309154.4
       12697.16       2.000000       119247.4       309439.4
       12700.14       2.000000       120098.4       311399.4
       12703.24       2.000000       120170.4       310734.4
       12706.44       2.000000       120061.4       310831.4
       12709.75       2.000000       119949.4       314212.4
       12713.18       2.000000       120160.4       316449.4
       12716.71       2.000000       120007.4       316334.4
       12720.35       2.000000       119905.4       315509.4
       12724.10       2.000000       119895.4       313987.4
       12727.96       2.000000       120014.4       312875.4
       12731.94       2.000000       119873.4       312806.4
       12736.02       2.000000       119835.4       313589.4
       12740.21       2.000000       119396.4       313119.4
       12744.51       2.000000       119828.4       314750.4
       12748.92       2.000000       119827.4       315891.4
       12753.44       2.000000       119819.4       315908.4
       12758.06       2.000000       119654.4       316117.4
       12762.80       2.000000       119647.4       318799.4
       12767.65       2.000000       119584.4       320409.4
       12772.61       2.000000       119589.4       320500.4
       12777.68       2.000000       120291.4       321569.4
       12782.85       2.000000       120078.4       318977.4
       12788.14       2.000000       120183.4       317441.4
       12793.54       2.000000       120160.4       317460.4
       12799.04       2.000000       119898.4       318163.4
       12804.66       2.000000       120532.4       321176.4
       12810.38       2.000000       119932.4       320882.4
       12816.21       2.000000       120045.4       322395.4
       12822.16       2.000000       119792.4       322717.4
       12828.21       2.000000       119831.4       323958.4
       12834.38       2.000000       119720.4       324804.4
       12840.65       2.000000       119659.4       325398.4
       12847.03       2.000000       119818.4       325646.4
       12853.52       2.000000       119788.4       325478.4
       12860.13       2.000000       119966.4       326126.4
       12866.84       2.000000       119543.4       324055.4
       12873.66       2.000000       119771.4       323961.4
       12880.59       2.000000       119611.4       323982.4
       12887.63       2.000000       119563.4       325492.4
       12894.78       2.000000       119486.4       326681.4
       12902.04       2.000000       119536.4       328215.4
       12909.41       2.000000       119490.4       329622.4
       12916.88       2.000000       119543.4       330826.4
       12924.47       2.000000       119473.4       331126.4
       12932.17       2.000000       119388.4       330907.4
       12939.98       2.000000       119300.4       330724.4
       12947.90       2.000000       119427.4       331242.4
       12955.92       2.000000       119259.4       331178.4
       12964.06       2.000000       119337.4       331958.4
       12972.30       2.000000       119221.4       332146.4
       12980.66       2.000000       119298.4       332850.4
       12989.13       2.000000       119058.4       333269.4
       12997.70       2.000000       119178.4       334782.4
       13006.38       2.000000       119117.4       335930.4
       13015.18       2.000000       118935.4       336642.4
       13024.08       2.000000       119726.4       339655.4
       13033.09       2.000000       119500.4       339662.4
       13042.22       2.000000       119697.4       340506.4
       13051.45       2.000000       119577.4       340662.4
       13060.79       2.000000       119528.4       340871.4
       13070.24       2.000000       119554.4       341621.4
       13079.80       2.000000       119446.4       342205.4
       13089.47       2.000000       119435.4       343137.4
       13099.25       2.000000       119384.4       343930.4
       13109.14       2.000000       119406.4       345063.4
       13119.14       2.000000       119362.4       345994.4
       13129.25       2.000000       119223.4       346613.4
       13139.47       2.000000       119100.4       347152.4
       13149.80       2.000000       119311.4       348645.4
       13160.24       2.000000       119188.4       349080.4
       13170.79       2.000000       119188.4       349741.4
       13181.44       2.000000       119153.4       350263.4
       13192.21       2.000000       119392.4       351721.4
       13203.09       2.000000       119721.4       353640.4
       13214.07       2.000000       119464.4       353887.4
       13225.17       2.000000       119763.4       355827.4
       13236.37       2.000000       119548.4       356219.4
       13247.69       2.000000       119639.4       357653.4
       13259.11       2.000000       119262.4       357492.4
       13270.65       2.000000       117591.4       353484.4
       13282.29       2.000000       119042.4       358666.4
       13294.04       2.000000       119581.4       361265.4
       13305.91       2.000000       119595.4       362158.4
       13317.88       2.000000       119452.4       362686.4
       13329.96       2.000000       119185.4       362746.4
       13342.15       2.000000       119540.4       364823.4
       13354.46       2.000000       119397.4       365408.4
       13366.87       2.000000       119181.4       365755.4
       13379.39       2.000000       119230.4       366947.4
       13392.02       2.000000       119169.4       367818.4
       13404.76       2.000000       119748.4       370739.4