Folder: XASDataLibrary/data/Sr (part 11)

File: SrZrSi2O7_15K_01.xdi
# XDI/1.0 EXAFS Data Collector 1.1 AD.RGN
# Column.1: energy eV
# Column.2: mutrans
# Column.3: murefer
# Column.4: i0
# Beamline.name: SSRL 4-3 (?)
# Detector.I0: N2 15cm
# Detector.I1: N2+Ar 30cm
# Detector.I2: Ar
# Element.edge: K
# Element.symbol: Sr
# Mono.d_spacing: 1.920128
# Mono.name: Si(220)
# Mono.notes: (?) unfocussed, detuned 50%, clockwise at E=16000eV
# Sample.formula: SrZrSi2O7
# Sample.name: SrZrSi2O7
# Sample.prep: powder
# Sample.reference: SrCO3
# Sample.temperature: 15K
# Scan.start_time: 1997-03-18 11:11:52
# ///
#    Note: mono d_spacing is nominal!
#-------------
#   energy   mutrans      murefer      i0
  15700.043  0.451659  -1.06579   43018.602
  15719.954  0.446935  -1.06969   42132.602
  15739.919   0.4441162  -1.07259   41106.602
  15759.935  0.437777  -1.07736   40744.602
  15780.002  0.434269  -1.08046   39868.602
  15799.958  0.430166  -1.08455   39039.602
  15819.965   0.4268575  -1.08797   38199.602
  15840.023   0.4230676  -1.09172   37424.602
  15859.968  0.418799  -1.09605   36728.602
  15879.964  0.415178  -1.09949   35950.602
  15900.011  0.411377  -1.10353   35115.602
  15919.941  0.407717  -1.10746   34459.602
  15939.925  0.404219  -1.11107   33678.602
  15959.959  0.40121  -1.11486   32948.602
  15980.045  0.397917  -1.11875     32137.6
  16000.012   0.3944866  -1.12244     31524.6
  16020.030  0.392019  -1.12627     30767.6
  16039.929  0.390447  -1.12988     30169.6
  16060.049  0.391375  -1.13319     29527.6
  16080.051  0.403614  -1.13574     28874.6
  16082.448  0.407447  -1.1356     28788.6
  16084.846  0.41209  -1.13575     28697.6
  16087.415   0.4202181  -1.13569     28508.6
  16089.813  0.430392  -1.13558     28535.6
  16092.214  0.448506   -1.135105     28330.6
  16094.785  0.484292  -1.13527     28304.6
  16097.187    0.568072  -1.13611     28222.6
  16099.588  0.738389  -1.13806     28118.6
  16102.162   1.02645  -1.13201     27976.6
  16104.565   1.33277   -1.092818     27956.6
  16106.970   1.61878   -1.021453     27906.6
  16109.547   1.81583 -0.953199     27881.6
  16111.952   1.79911 -0.920973     27763.6
  16114.359    1.686205 -0.935942     27628.6
  16116.767   1.5786 -0.95678     27568.6
  16119.345   1.48491 -0.98113     27504.6
  16121.754   1.42707 -0.999058     27404.6
  16124.163   1.39952  -1.00498     27401.6
  16126.746   1.39878  -1.00696     27158.6
  16129.157   1.41197  -1.008     27063.6
  16131.568   1.4181  -1.00653     26924.6
  16133.980   1.41668  -1.00302     26832.6
  16136.568   1.42117 -0.998021     26990.6
  16138.981   1.44133 -0.992728     26834.6
  16141.396   1.4779 -0.987146     26720.6
  16143.812   1.51898 -0.98117     26790.6
  16146.400    1.552967 -0.977905     26497.6
  16148.817   1.55665  -0.9778284     26315.6
  16151.062   1.53968 -0.979567   52608.184
  16153.481   1.51656 -0.9827   52389.063
  16155.727    1.498865 -0.985502   52032.816
  16158.146   1.48434 -0.988963   52255.449
  16160.740   1.47257 -0.993257   52098.957
  16163.334   1.4627 -0.99714   51622.344
  16166.102   1.4523  -1.00041   51613.605
  16168.871   1.44506  -1.0028   51189.746
  16171.642   1.43357  -1.00507   51282.762
  16174.586   1.41964  -1.00578   51286.656
  16177.705    1.406564  -1.00512    51295.43
  16180.825   1.39853  -1.00349   51667.078
  16183.946   1.40142  -1.00154   52153.605
  16187.242   1.41385  -1.00056   52587.008
  16190.539   1.43117  -1.00003   52726.289
  16194.011   1.44538  -1.00066   52965.445
  16197.485   1.45763  -1.00106    52846.48
  16201.134   1.45857  -1.00183   52776.391
  16204.785   1.45114   -1.002314    52906.18
  16208.612   1.44173   -1.002884   52967.848
  16212.439   1.43304  -1.00437   53321.391
  16216.271   1.42456  -1.00738   53196.809
  16220.276   1.41738  -1.01012   53478.109
  16224.459   1.41106  -1.01242   53424.281
  16228.644   1.4018  -1.01369   53801.336
  16232.832   1.39411  -1.01458   53872.266
  16237.194   1.3876   -1.014977    54094.07
  16241.561   1.38317  -1.01519   54394.754
  16246.104   1.37932  -1.01605   54691.313
  16250.650   1.37855  -1.0156   54939.754
  16255.199   1.38523  -1.01614   55136.066
  16259.925   1.39354  -1.01742   55361.258
  16264.830   1.4051  -1.01903   55677.328
  16269.737   1.41374   -1.018992   56113.273
  16274.646   1.41641  -1.01892   56075.098
  16279.736   1.40979  -1.02016   56319.801
  16284.828   1.39809  -1.02168   56801.379
  16290.099   1.38476  -1.02296   57150.832
  16295.373   1.37266  -1.02474   57267.164
  16300.827   1.36406  -1.02603   57678.375
  16306.286   1.36087  -1.02746   57963.461
  16311.748   1.36188   -1.029007   58440.426
  16317.388   1.36747  -1.02992   58732.266
  16323.212   1.37588  -1.03058   59088.984
  16328.861   1.37822   -1.031417   59376.578
  16334.867   1.37166  -1.03191   59727.051
  16340.703   1.36478  -1.03311   59941.402
  16346.719   1.36029  -1.03367   60475.629
  16352.918   1.35901  -1.03583   60927.734
  16359.119   1.35622   -1.037031   60931.715
  16365.326   1.35529  -1.03866    61272.57
  16371.717   1.35427  -1.03967   61727.309
  16378.111   1.34882  -1.04113   61931.922
  16384.689   1.34396  -1.0421    62272.41
  16391.271    1.342489  -1.04318   62337.777
  16398.039   1.33888  -1.04467    62948.02
  16404.813   1.33484  -1.04631   63289.145
  16411.590   1.32951  -1.04725   63502.141
  16418.553   1.32738  -1.04802   63726.016
  16425.521   1.32495  -1.04908    64139.77
  16432.676   1.32569  -1.04985   64650.398
  16439.834   1.32629  -1.05077   65143.906
  16447.180   1.32272  -1.05269   65180.293
  16454.354   1.31881  -1.05371   65656.555
  16461.891   1.31579  -1.05446   65955.688
  16469.438   1.31283  -1.05654   66377.711
  16476.988   1.31218  -1.05771   66523.602
  16484.549   1.30697  -1.05855   66853.367
  16492.295    1.299382   -1.060444   67021.016
  16500.229   1.29356  -1.06254   67329.539
  16508.172   1.29032  -1.06347   67624.945
  16516.121   1.2918  -1.0642   67780.227
  16524.080   1.29272  -1.06598   68272.375
  16532.227   1.28988  -1.06777   68451.414
  16540.563   1.28505  -1.06869    68543.32
  16548.906   1.28199  -1.0703   69243.109
  16557.262   1.2766  -1.0727   69427.773
  16565.807   1.27309  -1.07432   69509.313
  16574.357   1.2723  -1.07565   69782.734
  16582.922   1.26929  -1.07691   70202.031
  16591.674   1.26635  -1.07853   70462.203
  16600.438   1.26209  -1.08043   70323.258
  16609.393   1.25632  -1.08163    70762.18
  16618.357   1.24967  -1.08224   70743.984
  16627.332    1.245979  -1.08347   71014.672
  16636.502   1.24445   -1.084972   71596.227
  16645.682    1.243313   -1.086862   71866.664
  16655.053   1.23937  -1.08857   71581.977
  16664.254   1.23613  -1.08983   72177.172
  16673.832    1.233183   -1.091884   72349.234
  16683.420   1.22885  -1.09341    72251.18
  16693.023   1.22385  -1.09548   72519.008
  16702.635   1.21851  -1.09701   72631.703
  16712.445   1.21213  -1.09809   72369.281
  16722.264   1.2088  -1.10024   73110.734
  16732.281    1.206911  -1.10174   72622.063
  16742.313    1.205218  -1.10377   72622.273
  16752.355   1.20081  -1.10546   72674.359
  16762.596   1.19536  -1.10709    73090.32
  16772.852   1.18878  -1.10868   72776.156
  16783.117   1.18591  -1.11049   72957.875
  16793.584   1.18148  -1.1118   72743.469
  16804.063   1.17826   -1.113528   72979.938
  16814.744   1.17339  -1.1142   72592.289
  16825.438   1.17031  -1.11631   72886.516
  16836.146   1.16722  -1.11883   72929.617
  16847.059   1.16277  -1.12088   72612.594
  16857.982   1.15943  -1.12321   73030.453
  16868.922   1.15399  -1.12401   72551.188
  16880.064   1.15013  -1.1274   73120.797
  16891.223   1.14455  -1.12842   72649.289
  16902.396   1.14157   -1.130816   72856.656
  16913.773   1.13754  -1.13217   72813.898
  16925.166   1.13376  -1.13365   72962.016
  16936.576   1.128  -1.13359   72598.016
  16948.191   1.12338  -1.13605   72268.883
  16959.822   1.11935  -1.13846   72343.641
  16971.471   1.1154  -1.14094   72331.266
  16983.326   1.11083  -1.1421   72554.773
  16995.197   1.10671  -1.14378   72302.156
  17001.332   1.10536  -1.14524   72131.797

File: SrZrSi2O7_15K_02.xdi
# XDI/1.0 EXAFS Data Collector 1.1 AD.RGN
# Column.1: energy eV
# Column.2: mutrans
# Column.3: murefer
# Column.4: i0
# Beamline.name: SSRL 4-3 (?)
# Detector.I0: N2 15cm
# Detector.I1: N2+Ar 30cm
# Detector.I2: Ar
# Element.edge: K
# Element.symbol: Sr
# Mono.d_spacing: 1.920128
# Mono.name: Si(220)
# Mono.notes: (?) unfocussed, detuned 50%, clockwise at E=16000eV
# Sample.formula: SrZrSi2O7
# Sample.name: SrZrSi2O7
# Sample.prep: powder
# Sample.reference: SrCO3
# Sample.temperature: 15K
# Scan.start_time: 1997-03-18 11:11:52
# ///
#    Note: mono d_spacing is nominal!
#-------------
#   energy   mutrans      murefer      i0
  15700.043  0.45308   -1.062762   40559.602
  15719.954  0.448413  -1.06733   39725.602
  15739.919  0.446166   -1.069175   38486.602
  15759.935  0.440112  -1.07378   38072.602
  15780.002  0.436507  -1.07764   37166.602
  15799.958  0.432793  -1.08125   36316.602
  15819.965  0.428564  -1.08536   35670.602
  15840.023  0.424132  -1.08949   34985.602
  15859.968  0.420523  -1.09286   34125.602
  15879.964  0.416624  -1.0968   33387.602
  15900.011  0.412684  -1.10089     32739.6
  15919.941  0.409761  -1.10456     31839.6
  15939.925  0.406157  -1.10837     31091.6
  15959.959  0.401705  -1.11241     30657.6
  15980.045  0.398039  -1.11607     29985.6
  16000.012  0.395966  -1.12     29128.6
  16020.030  0.39293  -1.12386     28579.6
  16039.929  0.391177   -1.127642     27865.6
  16060.049  0.391866   -1.131243     27424.6
  16080.051  0.404752  -1.13357     26618.6
  16082.448  0.408045  -1.13375     26590.6
  16084.846  0.412098  -1.13376     26775.6
  16087.415  0.420341  -1.13371     26514.6
  16089.813  0.431019   -1.133241     26337.6
  16092.214  0.448231  -1.13311     26215.6
  16094.785  0.483926  -1.13333     26165.6
  16097.187  0.567475  -1.13423     26108.6
  16099.588   0.7353696  -1.13602     26093.6
  16102.162   1.02118  -1.12929     25966.6
  16104.565   1.33195  -1.09007     25800.6
  16106.970   1.61549   -1.016685     25767.6
  16109.547   1.81345 -0.946964     25779.6
  16111.952   1.79822 -0.913831     25661.6
  16114.359   1.68696 -0.929124     25585.6
  16116.767   1.57909 -0.950174     25525.6
  16119.345   1.48545 -0.975139     25297.6
  16121.754   1.42728 -0.993666     25401.6
  16124.163   1.39884 -0.999632     25341.6
  16126.746   1.39758  -1.00123     25123.6
  16129.157   1.40979  -1.00195     25108.6
  16131.568   1.4181  -1.00119     24818.6
  16133.980   1.41574 -0.997517     24817.6
  16136.568   1.42031 -0.992681     24906.6
  16138.981   1.44022 -0.987341     24799.6
  16141.396   1.47591 -0.981384     24650.6
  16143.812   1.51883 -0.975104     24498.6
  16146.400   1.55131 -0.971235     24519.6
  16148.817   1.55451 -0.971443     24569.6
  16151.062   1.53874 -0.973359   48971.184
  16153.481   1.51613  -0.9767994   48518.063
  16155.727   1.4975 -0.978801   48398.816
  16158.146    1.485086 -0.982381   48298.449
  16160.740   1.47406 -0.987162   48062.957
  16163.334   1.46159 -0.991781   47972.344
  16166.102   1.45259 -0.995672   47649.605
  16168.871   1.44338 -0.997714   47516.746
  16171.642    1.433758  -1.00042   47391.762
  16174.586   1.41975  -1.00138   47321.656
  16177.705   1.40611  -1.00058    47567.43
  16180.825   1.39805 -0.998337   47866.078
  16183.946   1.40051 -0.997278   48515.605
  16187.242   1.41367 -0.995806   48734.008
  16190.539   1.43057 -0.995262   48919.289
  16194.011   1.44527 -0.99595   49068.445
  16197.485   1.45525 -0.996227    49073.48
  16201.134   1.45786 -0.996031   48755.391
  16204.785   1.45108 -0.997088    48968.18
  16208.612   1.44198 -0.998583   49136.848
  16212.439   1.43343  -1.00054   49291.391
  16216.271   1.42421  -1.0028   49372.809
  16220.276    1.417387  -1.00515   49389.109
  16224.459   1.40978  -1.00747   49785.281
  16228.644   1.40124  -1.00867   50064.336
  16232.832    1.393663  -1.00955   50064.266
  16237.194   1.38774  -1.01044    50244.07
  16241.561   1.38314  -1.01077   50377.754
  16246.104   1.37917  -1.01141   50604.313
  16250.650   1.37826  -1.01095   50963.754
  16255.199   1.38368  -1.01011   51057.066
  16259.925   1.39238  -1.01152   51365.258
  16264.830   1.4033  -1.01251   51468.328
  16269.737   1.41381  -1.01372   51845.273
  16274.646   1.41534  -1.01361   51967.098
  16279.736    1.408763  -1.01388   52436.801
  16284.828   1.39706  -1.01552   52631.379
  16290.099   1.38364  -1.01743   52933.832
  16295.373   1.37152  -1.01899   53272.164
  16300.827   1.36323  -1.02087   53248.375
  16306.286   1.35966  -1.02216   53663.461
  16311.748   1.36087  -1.02321   54263.426
  16317.388   1.36643  -1.02389   54534.266
  16323.212   1.37434   -1.024166   54823.984
  16328.861   1.37599  -1.02438   55435.578
  16334.867   1.36975   -1.025339   55466.051
  16340.703   1.36255  -1.02619   55772.402
  16346.719   1.35866   -1.027855   56128.629
  16352.918   1.35736  -1.02974   56373.734
  16359.119   1.35448  -1.03106   56702.715
  16365.326   1.35292  -1.03253    57034.57
  16371.717   1.35041  -1.03418   57414.309
  16378.111   1.3446  -1.03499   57780.922
  16384.689   1.34233  -1.03642    57987.41
  16391.271    1.340197  -1.03679   58512.777
  16398.039   1.33666  -1.03854    58747.02
  16404.813   1.33275  -1.03958   58789.145
  16411.590   1.3271  -1.04075   59164.141
  16418.553   1.32535  -1.0422   59604.016
  16425.521    1.323089  -1.0427    59634.77
  16432.676   1.32422  -1.04451   60096.398
  16439.834   1.32479  -1.0459   60577.906
  16447.180   1.31977  -1.04649   60748.293
  16454.354   1.3163  -1.04789   61329.551
  16461.891    1.314234  -1.04946   61598.691
  16469.438   1.31065  -1.0505   61682.707
  16476.988   1.30964  -1.05154   61886.602
  16484.549    1.303984  -1.05297   61997.371
  16492.295   1.29711  -1.05508    62537.02
  16500.229   1.29041  -1.05623   62578.543
  16508.172    1.287655  -1.0576   62798.945
  16516.121   1.28986  -1.05895   63174.223
  16524.080   1.28972  -1.06034   63651.379
  16532.227   1.28711  -1.06216    63680.41
  16540.563   1.28209  -1.06293    64239.32
  16548.906   1.27553  -1.06412   63971.109
  16557.262   1.27101   -1.065147   64235.773
  16565.807   1.26878  -1.06675   64733.316
  16574.357   1.26744  -1.06785   65054.734
  16582.922   1.26368  -1.06931   65188.031
  16591.674   1.26099  -1.07109   65498.203
  16600.438   1.25721  -1.07246   66138.258
  16609.393    1.252694  -1.07488    66429.18
  16618.357    1.246218   -1.076272   66622.984
  16627.332   1.24409  -1.07712   67056.672
  16636.502   1.24027  -1.07869   67066.227
  16645.682    1.239606  -1.08117   67227.664
  16655.053   1.23553   -1.082431   67374.977
  16664.254    1.231074  -1.08346   67566.172
  16673.832   1.22918  -1.08563   67965.234
  16683.420   1.22491  -1.08719    67974.18
  16693.023   1.22024  -1.08905   68155.008
  16702.635   1.21547  -1.08998   68614.703
  16712.445   1.21092  -1.092   68922.281
  16722.264   1.20636  -1.09314   68455.734
  16732.281   1.20349  -1.09457   68546.063
  16742.313    1.201736  -1.09625   68455.273
  16752.355   1.19768  -1.09842   68614.359
  16762.596   1.19231   -1.099863    68578.32
  16772.852   1.18668   -1.101446   68751.156
  16783.117   1.18319  -1.10275   68910.875
  16793.584   1.17898  -1.10464   69131.469
  16804.063   1.17479  -1.1059   69139.938
  16814.744   1.17036  -1.10762   69107.289
  16825.438   1.16709  -1.10974   69066.516
  16836.146   1.163  -1.11135   68936.617
  16847.059   1.1585  -1.11285   68958.594
  16857.982   1.15404  -1.11445   68918.453
  16868.922   1.15081   -1.116675   69394.188
  16880.064   1.14438  -1.11703   68963.797
  16891.223   1.14112  -1.11954   69480.289
  16902.396   1.13652  -1.12078   69249.656
  16913.773   1.13338  -1.12271   69318.898
  16925.166   1.12977  -1.12447   69431.016
  16936.576   1.12622  -1.12711   69274.016
  16948.191   1.12234   -1.128867   69477.883
  16959.822   1.11628   -1.129745   69102.641
  16971.471   1.11262  -1.13166   69535.266
  16983.326   1.11406  -1.13382   69803.773
  16995.197   1.10499   -1.135777   69475.156
  17001.332    1.102615  -1.13685   69391.797

File: SrZrSi2O7_15K_03.xdi
# XDI/1.0 EXAFS Data Collector 1.1 AD.RGN
# Column.1: energy eV
# Column.2: mutrans
# Column.3: murefer
# Column.4: i0
# Beamline.name: SSRL 4-3 (?)
# Detector.I0: N2 15cm
# Detector.I1: N2+Ar 30cm
# Detector.I2: Ar
# Element.edge: K
# Element.symbol: Sr
# Mono.d_spacing: 1.920128
# Mono.name: Si(220)
# Mono.notes: (?) unfocussed, detuned 50%, clockwise at E=16300eV
# Sample.formula: SrZrSi2O7
# Sample.name: SrZrSi2O7
# Sample.prep: powder
# Sample.reference: SrCO3
# Sample.temperature: 15K
# Scan.start_time: 1997-03-18 11:11:52
# ///
#    Note: mono d_spacing is nominal!
#-------------
#   energy   mutrans      murefer      i0
  15700.043  0.45587   -1.057102   38937.602
  15719.954  0.451634  -1.0609   37899.602
  15739.919  0.448616  -1.06403   36748.602
  15759.935  0.443051  -1.06847   36298.602
  15780.002   0.4383426  -1.07271   35726.602
  15799.958  0.4347  -1.07643   34847.602
  15819.965  0.430629  -1.08037   34124.602
  15840.023  0.42663  -1.08421   33352.602
  15859.968  0.422417  -1.08847     32661.6
  15879.964  0.419194  -1.09224     31902.6
  15900.011  0.414966  -1.09609     31251.6
  15919.941  0.411032  -1.10033     30534.6
  15939.925    0.407833  -1.10405     29808.6
  15959.959  0.403876  -1.10793     29244.6
  15980.045  0.399797  -1.11176     28673.6
  16000.012  0.397048  -1.11568     27919.6
  16020.030  0.393925  -1.11955     27310.6
  16039.929  0.392563  -1.12337     26759.6
  16060.049  0.393528  -1.12677     26023.6
  16080.051  0.405465  -1.12912     25473.6
  16082.448  0.408703  -1.12927     25363.6
  16084.846  0.413669  -1.12941     25214.6
  16087.415  0.421545   -1.129463     25139.6
  16089.813  0.431669  -1.12941     25093.6
  16092.214  0.448259  -1.12921     25112.6
  16094.785  0.482055  -1.12904     25057.6
  16097.187  0.560083  -1.13007     24916.6
  16099.588   0.7216325  -1.13205     24918.6
  16102.162   1.00231  -1.1267     24685.6
  16104.565   1.30798  -1.08894     24834.6
  16106.970   1.5945  -1.01638     24685.6
  16109.547   1.80611 -0.945515     24580.6
  16111.952   1.80452 -0.906093     24462.6
  16114.359   1.69527 -0.918962     24360.6
  16116.767   1.58641   -0.942323     24447.6
  16119.345    1.490952 -0.967776     24273.6
  16121.754   1.43049 -0.986274     24312.6
  16124.163   1.40056 -0.99385     24147.6
  16126.746   1.39738 -0.99504     23949.6
  16129.157   1.41005 -0.996119     23894.6
  16131.568   1.41703 -0.994951     23818.6
  16133.980   1.41474 -0.991752     23887.6
  16136.568   1.41913 -0.986241     23901.6
  16138.981   1.43786 -0.981295     23738.6
  16141.396   1.47193 -0.975243     23563.6
  16143.812   1.5144 -0.969219     23535.6
  16146.400   1.54938 -0.965089     23365.6
  16148.817   1.55587 -0.965331     23304.6
  16151.062   1.54106 -0.967313   46470.184
  16153.481   1.51801 -0.970627   46291.063
  16155.727   1.49951 -0.97348   46148.816
  16158.146   1.48425 -0.976393   45862.449
  16160.740   1.47219 -0.981035   45858.957
  16163.334   1.46196 -0.985194   45604.344
  16166.102   1.4524 -0.988889   45392.605
  16168.871   1.44351 -0.991486   45341.746
  16171.642   1.43323 -0.993792   45161.762
  16174.586    1.419086 -0.99463   45343.656
  16177.705   1.40725 -0.99367    45346.43
  16180.825   1.39729 -0.992149   45921.078
  16183.946   1.39847 -0.989798   46602.605
  16187.242   1.4108 -0.988004   46475.008
  16190.539   1.42815 -0.98838   46761.289
  16194.011   1.44366 -0.989057   46566.445
  16197.485   1.45396 -0.989446    46767.48
  16201.134   1.45675 -0.989773   46791.391
  16204.785   1.44987 -0.990178    46611.18
  16208.612   1.44006 -0.9906   46695.848
  16212.439   1.43191 -0.992763   46788.391
  16216.271   1.42296 -0.995575   46850.809
  16220.276   1.41551 -0.99755   47159.109
  16224.459   1.4095  -1.00092   47376.281
  16228.644   1.40059  -1.00138   47337.336
  16232.832   1.39192  -1.00275   47527.266
  16237.194   1.38598  -1.00357    47748.07
  16241.561   1.3818  -1.00409   47980.754
  16246.104   1.37738  -1.00394   48107.313
  16250.650   1.37697  -1.00431   48258.754
  16255.199   1.38159  -1.00309   48681.066
  16259.925   1.38963  -1.00397   49029.258
  16264.830   1.40015   -1.005089   49270.328
  16269.737   1.41063   -1.006534   49336.273
  16274.646   1.41327  -1.0066   49320.098
  16279.736   1.40761   -1.007959   49695.801
  16284.828   1.39466  -1.00828   49887.379
  16290.099   1.38156   -1.009887   50136.832
  16295.373   1.36921  -1.01167   50424.164
  16300.827   1.36079  -1.01361   50654.375
  16306.286   1.35757  -1.01448   50908.461
  16311.748    1.357749  -1.0156   51252.426
  16317.388    1.363802  -1.01586   51524.266
  16323.212   1.37062  -1.01675   52009.984
  16328.861   1.37431  -1.01797   52362.578
  16334.867   1.3679  -1.01876   52536.051
  16340.703   1.36045  -1.01957   52802.402
  16346.719   1.35649  -1.02081   53067.629
  16352.918   1.35531  -1.0229   53477.734
  16359.119   1.35239  -1.02412   53734.715
  16365.326   1.35024  -1.02449    54115.57
  16371.717   1.34778  -1.02623   54461.309
  16378.111   1.34182  -1.02758   54846.922
  16384.689   1.33929  -1.0282    54693.41
  16391.271   1.33745  -1.02968   55243.777
  16398.039   1.33495  -1.0317    55470.02
  16404.813   1.33071  -1.03296   55638.145
  16411.590   1.32679  -1.03373   56014.141
  16418.553   1.32223  -1.03439   56334.016
  16425.521   1.3202  -1.03589    56751.77
  16432.676   1.32094  -1.03701   57108.398
  16439.834   1.32168  -1.03802   57205.906
  16447.180   1.31711  -1.03991   57593.293
  16454.354   1.31363  -1.04101   58030.551
  16461.891   1.31043  -1.04196   58131.691
  16469.438   1.30827  -1.04355   58764.707
  16476.988   1.30759  -1.04508   58783.602
  16484.549   1.30229  -1.04581   59053.371
  16492.295   1.29513  -1.04769    59094.02
  16500.229   1.28782  -1.04865   59520.543
  16508.172   1.2852  -1.04995   59723.945
  16516.121   1.28666  -1.05112   60162.223
  16524.080   1.29064  -1.05297   60536.379
  16532.227   1.28466  -1.055    60763.41
  16540.563   1.28091  -1.05643    61071.32
  16548.906   1.27346  -1.05692   61019.109
  16557.262   1.27075  -1.06004   61446.773
  16565.807   1.26727  -1.06088   61446.316
  16574.357   1.26622  -1.06247   61920.734
  16582.922   1.2634  -1.06359   62138.031
  16591.674   1.26022  -1.0648   62482.203
  16600.438   1.25573  -1.06643   62428.254
  16609.393   1.25063  -1.0681   62548.184
  16618.357   1.24468  -1.06978   62815.988
  16627.332   1.24008  -1.07041   62969.668
  16636.502   1.23825  -1.07202    63540.23
  16645.682   1.23705  -1.07377   63627.664
  16655.053   1.23366  -1.07588    63811.98
  16664.254   1.229   -1.076942   63629.168
  16673.832   1.22539  -1.07785   63863.238
  16683.420    1.222737  -1.08021   64291.184
  16693.023   1.21633  -1.08073   64200.004
  16702.635   1.2126  -1.08342   64658.703
  16712.445   1.20704  -1.0847   64669.281
  16722.264   1.20383  -1.08726   64842.734
  16732.281   1.20126  -1.08817   65042.066
  16742.313   1.19932  -1.08997   65214.273
  16752.355   1.19638  -1.09305   65002.359
  16762.596    1.189695  -1.09371    65162.32
  16772.852   1.18328  -1.09445    65037.16
  16783.117   1.18141  -1.09668   65571.875
  16793.584   1.1766   -1.097699   65192.469
  16804.063   1.17403  -1.10007   65486.941
  16814.744   1.16948  -1.10155   65369.289
  16825.438   1.16572  -1.10302   65696.516
  16836.146   1.15927  -1.10404   65332.617
  16847.059   1.15665  -1.10509   65632.594
  16857.982   1.1542  -1.10662   65643.453
  16868.922   1.14958  -1.10889   65956.188
  16880.064   1.14508  -1.11158   66161.797
  16891.223   1.13942  -1.1125   65793.289
  16902.396    1.136764  -1.11457   65775.656
  16913.773   1.13287  -1.11615   65951.898
  16925.166     1.12744  -1.11682   65876.016
  16936.576   1.12459  -1.11907   66184.016
  16948.191   1.11887  -1.12103   65731.883
  16959.822   1.11659  -1.1243   66017.641
  16971.471   1.11087  -1.12505   66018.266
  16983.326    1.107886  -1.12847   65867.773
  16995.197   1.10267   -1.128192   65983.156
  17001.332   1.10063  -1.12913   66235.797