Folder: XASDataLibrary/data/Sr (part 5)

File: SrO_rt_02.xdi
# XDI/1.0 EXAFS Data Collector 1.1 AD.RGN
# Column.1: energy eV
# Column.2: mutrans
# Column.3: mufluor
# Column.4: murefer
# Column.5: i0
# Beamline.name: SSRL 4-3
# Detector.I0: N2 15cm
# Detector.I1: N2+Ar 30cm
# Detector.If: Ar   (Lytle detector, using Rb Filter)
# Detector.I2: Ar
# Element.edge: K
# Element.symbol: Sr
# Mono.d_spacing: 1.920128
# Mono.name: Si(220)
# Mono.notes: (?) unfocussed, detuned 50%, clockwise at E=17000eV
# Sample.formula: SrO
# Sample.name: strontium oxide
# Sample.prep: powder
# Sample.reference: SrCO3
# Sample.temperature: room temperature
# Scan.start_time: 1995-06-14 19:09:21
# ///
#    Note: mono d_spacing is nominal!
#-------------
#   energy   mutrans    mufluor     murefer      i0
  15699.933   -1.626806  0.378983   1.07781   197185.59
  15719.844  -1.63178  0.37301   1.07523   194723.59
  15740.136  -1.63685  0.365335   1.07258   191927.59
  15760.152  -1.64202  0.358373   1.07003   187114.59
  15779.891  -1.64676  0.348549    1.067543   187479.59
  15800.011  -1.65178   0.3408116   1.0649   184717.59
  15819.854  -1.65673  0.33273   1.06234   182273.59
  15840.076   -1.661688  0.325548   1.05973   180040.59
  15860.021  -1.66655  0.318105   1.05713   177359.59
  15880.018  -1.67145  0.311101   1.05459   175106.59
  15900.063   -1.676343   0.3054774   1.052   172804.59
  15920.164  -1.68118  0.300127   1.04945   170470.59
  15939.978  -1.6859   0.2958046   1.04685   168012.59
  15959.844  -1.69052  0.293082   1.04443   165345.59
  15980.097  -1.69515  0.291933   1.04178   163088.59
  16000.064  -1.69967  0.294126   1.03923   160743.59
  16020.082  -1.70396   0.2994034   1.03672   158197.59
  16040.152  -1.70799  0.309889   1.03424   155671.59
  16059.933  -1.71139  0.331367   1.03186   153376.59
  16080.104  -1.71368  0.372963   1.02953   150966.59
  16099.984  -1.71247   0.4679784   1.02754   148318.59
  16119.917  -1.69313  0.838919   1.02752   146241.59
  16122.670  -1.68578  0.956237   1.02796   145938.59
  16125.079  -1.67495    1.126243   1.02878   145705.59
  16127.490   -1.655988   1.41556    1.030579   145451.59
  16129.901  -1.61652   2.00196   1.03437   145089.59
  16132.657  -1.50385   3.562    1.046021   144983.59
  16135.069  -1.33368   5.5813   1.06539   144484.59
  16137.483    -1.12047   7.65516   1.09026   144285.59
  16139.897 -0.882391   9.63027   1.12141   144207.59
  16142.657 -0.619118   9.66421   1.15346   143668.59
  16145.073 -0.507805   9.68162   1.15803   143409.59
  16147.490 -0.549331   9.70268   1.1432   143098.59
  16149.907 -0.644607   9.72357    1.125354   142790.59
  16152.670 -0.724741   9.75309   1.11112   142358.59
  16155.090 -0.770424   9.76196    1.105596   284457.19
  16156.473 -0.793198   9.7646   1.10396   284449.06
  16157.854 -0.817908   9.76892   1.1028   284535.69
  16159.237 -0.842494   9.77854    1.102094   284467.06
  16160.968 -0.868208    9.601248   1.10227   284420.19
  16162.695 -0.882848   9.50703    1.103422   284453.06
  16164.426 -0.883599   9.5178   1.10544   284551.66
  16166.157 -0.874467   9.59968   1.10761   284488.03
  16168.234 -0.856365   9.74811   1.10978   284134.12
  16170.311 -0.836009   9.91822    1.111622      284772
  16172.388 -0.815323   9.94266   1.11399   285920.59
  16174.466 -0.794722   9.91599   1.11679   288056.94
  16176.545 -0.776796   9.92884   1.11901   289185.03
  16178.971 -0.760076   9.96721   1.12042   289736.87
  16181.399 -0.749308   9.99683   1.12046   290640.47
  16183.826 -0.746381   10.0148   1.11922   292013.81
  16186.254 -0.749685   10.0331   1.11746   293506.91
  16189.030 -0.757149   10.0806   1.11472   294274.75
  16191.809 -0.765788   10.099   1.11152   296019.34
  16194.587 -0.777723   10.1166   1.10869   297914.69
  16197.366 -0.794526   10.151   1.10643   299468.75
  16200.493 -0.816257   10.151   1.1044   301241.59
  16203.274 -0.832366   10.0395   1.10322   303368.16
  16206.405 -0.844541   9.96178     1.10286    304911.5
  16209.884  -0.8495874   9.93827    1.103601   307199.56
  16213.016 -0.848031   9.9666   1.10468   309408.37
  16216.499 -0.842233   10.0201   1.10539   311745.94
  16219.981 -0.834985   10.0922   1.1056   314013.28
  16223.468 -0.8278   10.1556   1.10533   315764.34
  16226.954 -0.821839   10.2167   1.105   317472.16
  16230.792 -0.818985   10.2428   1.10482   319043.72
  16234.281 -0.8206   10.2425   1.10471      320609
  16238.122 -0.8242   10.2376   1.10426   323333.06
  16242.313  -0.8276649   10.2341   1.10289   327029.87
  16246.159 -0.831625    10.22629   1.10117   331884.41
  16250.354 -0.836654   10.2097   1.09903   336470.72
  16254.553  -0.8424202   10.177   1.09845   340598.78
  16258.753  -0.8486454   10.1347   1.09727   343535.56
  16262.957 -0.85506   10.0965   1.09657   345709.09
  16267.162 -0.861531   10.0609   1.09599   348702.41
  16271.719 -0.868216    10.02866   1.09541   352062.44
  16276.280 -0.871406   10.0255   1.0951   356062.22
  16280.844  -0.8699348   10.0563   1.09497   359852.75
  16285.760 -0.866013     10.1075   1.09497   363414.03
  16290.328 -0.86343   10.1473   1.0945   367446.06
  16295.252 -0.862067    10.17499   1.09362   370700.84
  16300.179 -0.86074   10.2078   1.0927   373742.34
  16305.459 -0.861092   10.2233   1.09247   377537.62
  16310.392 -0.866015   10.2001   1.09202   381361.66
  16315.680 -0.872633   10.1709   1.0913   384573.41
  16320.972 -0.875558   10.1703   1.09038   388276.94
  16326.268 -0.876323   10.1869   1.08919   392338.19
  16331.564 -0.877098   10.2014   1.08822   396244.22
  16337.221 -0.878498   10.2159   1.08718   399933.97
  16342.881 -0.881367   10.217   1.08617   404513.47
  16348.544 -0.885874   10.2041   1.08524   407996.72
  16354.211 -0.890581    10.19157   1.08473   412203.72
  16360.238 -0.89451   10.1862   1.08448   415524.47
  16365.914 -0.896471   10.1951   1.08409   419684.97
  16371.948 -0.896519   10.2178    1.083374   423710.22
  16377.989 -0.896752   10.2378   1.08244   427766.22
  16384.389 -0.898242   10.2547   1.08127   431923.97
  16390.438 -0.899824   10.2674   1.08023   435271.44
  16396.848 -0.901939   10.2787   1.07924   439786.69
  16403.262 -0.905001   10.2806   1.07833   443480.66
  16409.684 -0.909108   10.2743     1.07759   447628.41
  16416.107  -0.9135051   10.2645   1.07679   451720.87
  16422.895 -0.917505   10.262   1.07584   454760.09
  16429.332  -0.9197569   10.2688   1.07474   459050.09
  16436.129 -0.92135   10.2861   1.07368   463291.81
  16443.291 -0.923051   10.3028   1.07274   467047.28
  16450.104 -0.924994   10.3135   1.07192    470718.5
  16457.277 -0.927185   10.3239   1.07118   474863.47
  16464.100 -0.92993   10.3313   1.07042   478800.19
  16471.289 -0.933234   10.3349   1.06949   483166.66
  16478.842 -0.936512   10.3396   1.06837   486406.84
  16486.043 -0.939095   10.3519   1.06737   488536.81
  16493.611 -0.941239   10.3648   1.06633    493108.5
  16500.826 -0.942891    10.37897   1.06533   497395.97
  16508.406 -0.94494   10.395    1.064364   500810.16
  16516.357 -0.947809   10.4042   1.06326   503217.12
  16523.953 -0.950956   10.4075    1.062316   507880.81
  16531.920 -0.954618   10.4106   1.06131   510969.25
  16539.531 -0.957868    10.41651   1.06036   514514.44
  16547.875 -0.961017   10.4273   1.05925   517238.41
  16555.863 -0.963848   10.4362   1.05816   519790.09
  16563.859 -0.96658   10.4463    1.057105    524362.5
  16572.230 -0.969207   10.4594   1.0561   527047.69
  16580.607 -0.971728    10.47534   1.05493   529699.62
  16588.992 -0.974535    10.48538   1.05381   531796.31
  16597.387  -0.9775933   10.4924   1.0527   534463.75
  16605.793 -0.980818   10.4995   1.05168   536513.94
  16614.570 -0.984111   10.5116   1.05061   540268.81
  16622.992 -0.98715   10.5207   1.04951    542046.5
  16631.789 -0.990349   10.5291   1.04835   544945.94
  16640.963 -0.99375   10.5371   1.0471   547659.06
  16649.779 -0.996825   10.5484   1.0459      549740
  16658.604 -0.999839   10.5615   1.04473   551715.69
  16667.809  -1.00299   10.5683   1.04364   553985.06
  16677.021  -1.00641   10.5789   1.04243   554282.25
  16686.246   -1.009856   10.5868   1.04132   556757.12
  16695.480  -1.01325   10.5979   1.04015   557013.81
  16705.096  -1.01665   10.6069   1.03894   558399.19
  16714.723  -1.02008    10.61896   1.03766   559775.31
  16723.990  -1.02314   10.6273   1.03653   561447.25
  16733.639  -1.02638   10.6412   1.03529   562602.87
  16743.670  -1.02978   10.6504    1.034038   563342.25
  16753.342  -1.03304   10.6622   1.0329   564999.44
  16763.396  -1.03657   10.6729   1.03159   566173.31
  16773.094  -1.03997   10.6832   1.03037   566676.94
  16783.174  -1.04349   10.6935   1.02908   566703.31
  16793.641  -1.04709   10.705    1.027821   566588.44
  16803.746  -1.05054   10.7132    1.026615   566596.31
  16813.863  -1.05353   10.7208   1.02544   563734.94
  16824.369  -1.05728   10.7387   1.02414   568114.31
  16834.887  -1.06071   10.7479   1.02283   568029.44
  16845.420   -1.064243   10.7602     1.02158   566770.31
  16855.965  -1.06767   10.7701   1.02031   566440.94
  16866.525  -1.07116   10.7824   1.01915   566299.31
  16877.477  -1.07486   10.7969   1.01788   565665.37
  16888.441  -1.07849   10.8066   1.01653   564796.25
  16899.041  -1.08195   10.8169   1.01532   563644.87
  16910.416  -1.08562   10.8297   1.01397   562151.25
  16921.424  -1.08919   10.8395   1.0126   560492.31
  16932.447  -1.09279   10.8499   1.01139   559428.19
  16943.865   -1.096507    10.86186   1.01004   557780.81
  16955.301  -1.10023   10.8743   1.0088   554988.12
  16966.371  -1.10375    10.88515   1.0075   554427.25
  16977.836  -1.10748   10.8964   1.00618   553912.06
  16989.699  -1.11121    10.90617   1.00488   549739.69
  17001.197  -1.11477   10.9204   1.00358      546437

File: SrO_rt_03.xdi
# XDI/1.0 EXAFS Data Collector 1.1 AD.RGN
# Column.1: energy eV
# Column.2: mutrans
# Column.3: mufluor
# Column.4: murefer
# Column.5: i0
# Beamline.name: SSRL 4-3
# Detector.I0: N2 15cm
# Detector.I1: N2+Ar 30cm
# Detector.If: Ar   (Lytle detector, using Rb Filter)
# Detector.I2: Ar
# Element.edge: K
# Element.symbol: Sr
# Mono.d_spacing: 1.920128
# Mono.name: Si(220)
# Mono.notes: (?) unfocussed, detuned 50%, clockwise at E=17000eV
# Sample.formula: SrO
# Sample.name: strontium oxide
# Sample.prep: powder
# Sample.reference: SrCO3
# Sample.temperature: room temperature
# Scan.start_time: 1995-06-14 19:09:21
# ///
#    Note: mono d_spacing is nominal!
#-------------
#   energy   mutrans    mufluor     murefer      i0
  15699.933  -1.62658  0.376403   1.07704   189607.59
  15719.844  -1.63157  0.369719   1.0745   186914.59
  15740.136  -1.6367  0.362784   1.07179   184445.59
  15760.152  -1.6418  0.355745   1.06915   179622.59
  15779.891  -1.64663  0.347562   1.06661   179846.59
  15800.011  -1.65176  0.339205   1.06392   177570.59
  15819.854  -1.65668   0.3316546   1.0614   175112.59
  15840.076  -1.66175  0.323672   1.05876   172686.59
  15860.021  -1.66661  0.316327   1.05616   170323.59
  15880.018  -1.6715   0.3096701   1.05355   167797.59
  15900.063   -1.676339  0.303915   1.05097   165516.59
  15920.164  -1.68122  0.298395   1.04841   163246.59
  15939.978  -1.68595  0.294869   1.04585   160772.59
  15959.844  -1.69058  0.292472   1.04331   158414.59
  15980.097   -1.695265  0.29131   1.04074   155991.59
  16000.064  -1.69975  0.292535   1.03824   153680.59
  16020.082  -1.70405  0.29813   1.03575   151349.59
  16040.152  -1.70812  0.309721   1.03324   148872.59
  16059.933  -1.71156  0.329725   1.0308   146597.59
  16080.104  -1.71383  0.371646   1.02846   144365.59
  16099.984  -1.71263  0.467365   1.02648   141869.59
  16119.917  -1.69342  0.834847   1.02641   139650.59
  16122.670   -1.686195  0.954149   1.02689   139509.59
  16125.079  -1.67552   1.12143   1.02782   139339.59
  16127.490  -1.65677   1.40765   1.0295   138660.59
  16129.901  -1.61803   1.98508   1.03321   138595.59
  16132.657  -1.5066   3.52955   1.04462   138054.59
  16135.069  -1.33839   5.53097   1.06377   138040.59
  16137.483  -1.12475   7.61751   1.08851   137981.59
  16139.897 -0.887397   9.60224   1.11981   137679.59
  16142.657 -0.621968   10.114   1.15219   137281.59
  16145.073 -0.507555   10.1198   1.15727   137202.59
  16147.490 -0.546231   10.1374   1.14273   136964.59
  16149.907 -0.642253   10.1767   1.12475   136435.59
  16152.670 -0.723585    10.20591   1.11032   136044.59
  16155.090 -0.769295    10.22813   1.10465   271568.19
  16156.473 -0.792205   10.1566   1.10305   271047.06
  16157.854 -0.816906    9.971855   1.10184   271118.69
  16159.237  -0.8413709   9.79098   1.10114   270787.06
  16160.968 -0.867485   9.60043   1.10116   270996.19
  16162.695  -0.8825015   9.50202   1.10241   271432.06
  16164.426 -0.883709   9.51338   1.10442   271482.66
  16166.157  -0.8747761   9.59272   1.10655   271311.03
  16168.234 -0.856749   9.74358   1.1087   270710.12
  16170.311 -0.836405   9.91483   1.11058      271313
  16172.388 -0.81558   10.0763   1.11305   272922.59
  16174.466 -0.795127   10.2276   1.11584   274694.94
  16176.545 -0.777108   10.3609   1.11801   275393.03
  16178.971 -0.76021   10.4712   1.11952   275931.87
  16181.399 -0.749269     10.4894   1.11956   277093.47
  16183.826 -0.746196   10.494   1.11826   278752.81
  16186.254 -0.749361   10.5318   1.11654   279746.91
  16189.030 -0.756797   10.5445   1.11388   281201.75
  16191.809 -0.765423   10.497   1.11068   282612.34
  16194.587 -0.77738     10.4198   1.10781   283714.69
  16197.366 -0.794212   10.3054   1.10552   285632.75
  16200.493 -0.815685   10.1528    1.103463   287511.59
  16203.274 -0.832036   10.0419   1.10221   288865.16
  16206.405 -0.844389   9.95949   1.10185    290962.5
  16209.884 -0.849567   9.93559   1.10263   292448.56
  16213.016 -0.848045   9.96087   1.10364   294823.37
  16216.499 -0.84231   10.0165    1.104399   296574.94
  16219.981 -0.834993   10.0866   1.10457   298967.28
  16223.468   -0.827806   10.1535   1.10441   300931.34
  16226.954 -0.821823   10.2034   1.10401   302349.16
  16230.792 -0.81887   10.2371   1.10388   303322.72
  16234.281 -0.820446   10.2397   1.10375      305298
  16238.122 -0.823995   10.2311   1.10328   307700.06
  16242.313 -0.827474   10.2278   1.10195   311690.87
  16246.159  -0.8314452   10.2198   1.10025   315321.41
  16250.354  -0.8364536   10.2014   1.09903   320120.72
  16254.553 -0.842133   10.1708   1.09727   323475.78
  16258.753 -0.848408   10.1289   1.09627   327001.56
  16262.957 -0.854881   10.0922   1.09555   328991.09
  16267.162 -0.861415   10.0611   1.09498   331738.41
  16271.719 -0.868026   10.0313   1.09449   334576.44
  16276.280 -0.871289   10.0255   1.09406   338661.22
  16280.844 -0.869832   10.0595   1.09396   342288.75
  16285.760 -0.865908   10.1082   1.09401   346260.03
  16290.328 -0.863297   10.1452   1.09355   349553.06
  16295.252 -0.861932   10.1776   1.09258   352381.84
  16300.179 -0.860586   10.2081   1.09175   355636.34
  16305.459 -0.860892    10.22548   1.09143   359862.62
  16310.392 -0.865681    10.20685   1.09099   363953.66
  16315.680 -0.872264   10.1791   1.09024   366963.41
  16320.972 -0.87529   10.1769   1.08943   370746.94
  16326.268 -0.876072   10.193   1.08822   374598.19
  16331.564 -0.876784   10.2099   1.08714   378168.22
  16337.221 -0.878162    10.22164   1.08615   381392.97
  16342.881 -0.881103   10.2239   1.08513   385086.47
  16348.544 -0.885632   10.2117   1.08422   388391.72
  16354.211 -0.890286   10.1931   1.08367   392567.72
  16360.238 -0.894255   10.1897   1.08333   396166.47
  16365.914  -0.8961444   10.1972   1.08299   398917.97
  16371.948 -0.896257   10.2219    1.082334   402630.22
  16377.989 -0.896499   10.2449   1.08138   406199.22
  16384.389 -0.897964     10.2631   1.08022   409325.97
  16390.438 -0.89945   10.2746   1.07924   414492.44
  16396.848 -0.90158   10.286   1.07823   417413.69
  16403.262 -0.904645   10.2861   1.07734   421114.66
  16409.684 -0.908785   10.2809   1.07661   424869.41
  16416.107 -0.913193   10.271   1.07577   428407.87
  16422.895 -0.917132   10.2672   1.07482   432006.09
  16429.332 -0.919366   10.2781   1.07384   436209.09
  16436.129 -0.920979   10.2895   1.07279   439572.81
  16443.291 -0.922571   10.3104    1.071785   442338.28
  16450.104 -0.924462   10.3177   1.07107    445671.5
  16457.277 -0.926757   10.3293   1.07035   449140.47
  16464.100  -0.9294358   10.337   1.06951   453218.19
  16471.289 -0.932826   10.3394   1.0686   456682.66
  16478.842 -0.936026   10.3441   1.06751   460796.84
  16486.043  -0.9385459   10.3521   1.06647   464618.81
  16493.611 -0.940725   10.3659   1.0654    467647.5
  16500.826 -0.942382   10.3803   1.06447   471652.97
  16508.406  -0.9444266   10.3987   1.06347   474757.16
  16516.357 -0.947286    10.40906   1.0624   477914.12
  16523.953 -0.95046   10.4118   1.06139   480752.81
  16531.920 -0.954062   10.4162   1.06045   483244.25
  16539.531 -0.957273   10.4207   1.05957   487195.44
  16547.875 -0.96039   10.428   1.05839   489909.41
  16555.863 -0.963246   10.438   1.0573   492246.09
  16563.859 -0.965944    10.44928   1.0564   496463.53
  16572.230 -0.968622   10.4624   1.05528   498086.69
  16580.607 -0.971125   10.477   1.05413   500923.62
  16588.992  -0.9739869   10.4868   1.05304   504225.31
  16597.387 -0.977084   10.4941   1.05192   506350.75
  16605.793 -0.980304   10.5032    1.050795   508323.91
  16614.570 -0.983606   10.5098    1.049731   512025.84
  16622.992 -0.986715   10.5211   1.04869    512967.5
  16631.789 -0.989967   10.5323   1.04753   514603.94
  16640.963 -0.993311    10.53964   1.04632   517443.09
  16649.779 -0.996396   10.5512   1.04516      518768
  16658.604 -0.99935    10.56284   1.04408   521190.66
  16667.809  -1.00253   10.5705   1.04286   523403.06
  16677.021  -1.00596   10.5838   1.04174   525267.25
  16686.246  -1.00945   10.5903   1.04054   527448.12
  16695.480  -1.01282   10.5987   1.03945   528939.81
  16705.096  -1.01625   10.6087   1.0382   529544.19
  16714.723  -1.01969   10.6219   1.03689   530331.31
  16723.990  -1.02277   10.6313   1.03581   532387.25
  16733.639  -1.02609   10.6438   1.03461   532951.87
  16743.670  -1.02941    10.65641   1.03336   533507.25
  16753.342  -1.03268   10.665   1.03224   534546.44
  16763.396  -1.03624    10.67817   1.03097   534256.31
  16773.094  -1.03965   10.6885   1.02977   535312.94
  16783.174  -1.04318    10.69964   1.02849   535860.31
  16793.641  -1.04684   10.7082   1.02713   535328.44
  16803.746  -1.05025    10.72173    1.025903   535466.31
  16813.863  -1.05327   10.7302    1.024835   532337.94
  16824.369  -1.05709   10.7419   1.02343   536292.31
  16834.887  -1.06053   10.7576   1.0222   536308.44
  16845.420  -1.06401   10.7658    1.020929   535539.31
  16855.965  -1.06751   10.7781   1.01973   535697.94
  16866.525  -1.07097   10.7876   1.01846   535033.31
  16877.477  -1.07473   10.8017   1.01721   534146.37
  16888.441  -1.07821   10.8092    1.015874   534040.25
  16899.041  -1.0817   10.8207   1.01457   533100.87
  16910.416  -1.08531   10.8337   1.01319   532109.25
  16921.424  -1.08883   10.8439   1.01202   529481.31
  16932.447   -1.092416   10.8579   1.01069   528835.19
  16943.865  -1.09609   10.8669    1.009472   528918.81
  16955.301  -1.09975   10.8807   1.00817   526622.12
  16966.371  -1.10322   10.8865   1.00685   524988.25
  16977.836  -1.10693    10.90197   1.00563   523232.06
  16989.699  -1.11057   10.9124   1.00418   519387.66
  17001.197  -1.11415   10.9231   1.00297      518412