Folder: XASDataLibrary/data/Sr (part 4)

File: SrO_10K_02.xdi
# XDI/1.0 EXAFS Data Collector 1.1 AD.RGN
# Column.1: energy eV
# Column.2: mutrans
# Column.3: murefer
# Column.4: i0
# Beamline.name: SSRL 4-3
# Detector.I0: N2 15cm
# Detector.I1: N2+Ar 30cm
# Detector.I2: Ar
# Element.edge: K
# Element.symbol: Sr
# Mono.d_spacing: 1.920128
# Mono.name: Si(220)
# Mono.notes: (?) unfocussed, detuned 50%, clockwise at E=17000eV
# Sample.formula: SrO
# Sample.name: strontium oxide
# Sample.prep: powder
# Sample.reference: SrCO3
# Sample.temperature: 10K
# Scan.start_time: 1995-06-16 02:32:00
# ///
#    Note: mono d_spacing is nominal!
#-------------
#   energy   mutrans        murefer      i0
  15699.933  0.994143  -1.12128   71919.703
  15719.844   0.9912779  -1.12438   71177.703
  15740.136  0.988164  -1.12731   70405.703
  15760.152  0.986352  -1.13029   68666.703
  15779.891  0.981948  -1.13327   69029.703
  15800.011    0.978867  -1.13629   68303.703
  15819.854  0.975877   -1.139243   67579.703
  15840.076  0.972972  -1.14228   66830.703
  15860.021  0.970064  -1.14536   66074.703
  15880.018  0.96721  -1.1483   65428.699
  15900.063   0.9644614  -1.15144   64666.699
  15920.164  0.96165  -1.15446   63922.699
  15939.978  0.95892  -1.15739   63299.699
  15959.844  0.955665  -1.16035   62490.699
  15980.097  0.953567  -1.16343   61770.699
  16000.064   0.9513103  -1.16639   61144.699
  16020.082  0.948407  -1.16931   60453.699
  16040.152  0.94659  -1.17235   59681.699
  16059.933   0.9447166  -1.17531   59006.699
  16080.104  0.944004  -1.17833   58306.699
  16099.984  0.946426  -1.18128   57592.699
  16119.917  0.963224  -1.18399   56854.699
  16122.670  0.96921  -1.18451   56771.699
  16125.079  0.977205  -1.18462   56783.699
  16127.490  0.990563  -1.18495   56658.699
  16129.901    1.013896  -1.18505   56554.699
  16132.657   1.08141  -1.18546   56476.699
  16135.069   1.22548  -1.18529   56434.699
  16137.483   1.42928  -1.18461   56326.699
  16139.897   1.59295  -1.18387   56245.699
  16142.657   1.79436  -1.18332   56126.699
  16145.073   2.00093  -1.18183   56003.699
  16147.490   2.04804  -1.18135   55944.699
  16149.907    1.949183  -1.18299   55791.699
  16152.670   1.85317  -1.18394   55711.699
  16155.090   1.80263  -1.18439    111354.4
  16156.473   1.78033  -1.18477   111175.25
  16157.854   1.76062  -1.18521   111138.79
  16159.237   1.74425  -1.18528   111190.02
  16160.968   1.72413  -1.18569   111319.95
  16162.695   1.70176   -1.186097   111483.56
  16164.426   1.68393  -1.18649   111526.87
  16166.157   1.6776   -1.186734   111627.87
  16168.234   1.68478   -1.186985   111603.58
  16170.311   1.69746  -1.18734   111558.97
  16172.388   1.71338  -1.18756   111994.05
  16174.466   1.73486  -1.18798   113028.83
  16176.545   1.76263  -1.18805    113439.3
  16178.971   1.79684  -1.18787   113937.45
  16181.399   1.82526  -1.18824   114385.31
  16183.826   1.83998  -1.18848   114995.86
  16186.254   1.83382  -1.18874    115643.1
  16189.030   1.80639  -1.18933   116314.03
  16191.809   1.78425   -1.189902   116993.66
  16194.587   1.77586  -1.19017   117802.98
  16197.366   1.77  -1.1906   118466.99
  16200.493   1.75811  -1.19118    119330.7
  16203.274   1.74242  -1.19166    120117.1
  16206.405   1.72478  -1.19216   121112.19
  16209.884   1.71539  -1.19267   121954.98
  16213.016   1.71665  -1.19301   122872.45
  16216.499   1.71897  -1.19353   123872.62
  16219.981   1.71948   -1.193949   124865.48
  16223.468   1.72759  -1.19445   125750.05
  16226.954   1.74224  -1.19503    126928.3
  16230.792   1.75375  -1.19542   127680.23
  16234.281    1.750598  -1.19575   128365.87
  16238.122   1.74384  -1.19641    128882.2
  16242.313   1.74985  -1.19691   129920.22
  16246.159   1.75509  -1.19723   131683.94
  16250.354   1.74677  -1.19777   134212.34
  16254.553   1.7302  -1.19851   136393.44
  16258.753   1.71637  -1.19929   137815.23
  16262.957   1.70723  -1.19994   138690.72
  16267.162    1.704647  -1.20064   139739.91
  16271.719   1.70693  -1.20111   140707.78
  16276.280   1.70897  -1.20184   142372.34
  16280.844   1.70965    -1.20236   144619.59
  16285.760   1.71238  -1.20302   146528.55
  16290.328   1.71517  -1.20372    148053.2
  16295.252   1.71213  -1.20441   149716.53
  16300.179   1.71396  -1.20518   151445.56
  16305.459   1.72056  -1.20589   152990.28
  16310.392   1.71379  -1.20661    154825.7
  16315.680   1.70234  -1.20737   156390.81
  16320.972   1.69853  -1.20806   158061.61
  16326.268   1.70661  -1.20864   160015.11
  16331.564    1.712592  -1.20939    161678.3
  16337.221   1.7102  -1.2103   163661.17
  16342.881   1.70277  -1.21107   165530.75
  16348.544   1.69425  -1.21187   167252.02
  16354.211   1.68774   -1.212802   169127.98
  16360.238   1.68041  -1.21356   171020.62
  16365.914   1.67817  -1.2145   172856.97
  16371.948   1.68636  -1.21533   174743.02
  16377.989   1.69351  -1.21578   176697.75
  16384.389   1.69795  -1.21657   178558.17
  16390.438   1.69966  -1.21752    180589.3
  16396.848   1.69114  -1.21832   182613.09
  16403.262    1.679163  -1.21933   184351.61
  16409.684   1.67666  -1.22014    186348.8
  16416.107   1.67595  -1.22106   188234.69
  16422.895   1.67047  -1.22221   190172.27
  16429.332    1.666212  -1.22304   192279.55
  16436.129   1.66949  -1.224   194354.52
  16443.291   1.67304  -1.22494   196139.17
  16450.104    1.675583  -1.22602   198061.53
  16457.277   1.67346  -1.22678   200067.58
  16464.100   1.67137  -1.22763   202164.31
  16471.289   1.66257  -1.22873   204217.75
  16478.842   1.65618  -1.22975   206161.87
  16486.043   1.655  -1.23073    208295.7
  16493.611   1.65211  -1.23163    210265.2
  16500.826   1.65413  -1.23268   211939.42
  16508.406   1.66133  -1.2335   214126.31
  16516.357   1.66196  -1.23443   215768.91
  16523.953   1.65404  -1.23557   217506.19
  16531.920   1.64904  -1.23662   219431.17
  16539.531   1.64659   -1.237688   221214.84
  16547.875   1.63862  -1.23871    223559.2
  16555.863   1.63607  -1.23969   225072.25
  16563.859   1.63648  -1.24087      227296
  16572.230   1.63656  -1.24199   229315.45
  16580.607   1.64007  -1.24297   230962.58
  16588.992   1.64011  -1.24421   232400.41
  16597.387   1.63373   -1.245232   234107.94
  16605.793    1.628552  -1.24615   235510.14
  16614.570   1.62824  -1.2471   237674.05
  16622.992   1.62712  -1.24818   239789.66
  16631.789   1.62174  -1.24939   241064.94
  16640.963   1.61608  -1.2509   242948.92
  16649.779   1.61394  -1.25188   244218.61
  16658.604   1.61513  -1.2532   246154.98
  16667.809   1.61862  -1.2545   247593.05
  16677.021   1.61666  -1.25562    249035.8
  16686.246   1.61028  -1.25682   250526.25
  16695.480   1.60522   -1.258072   251753.39
  16705.096   1.60309  -1.25928   253064.23
  16714.723   1.60188  -1.26077   253670.77
  16723.990   1.59658  -1.26176   255682.98
  16733.639   1.59604  -1.26276   256537.91
  16743.670   1.59698  -1.2639   257727.52
  16753.342   1.59369  -1.26493   259062.81
  16763.396   1.59028  -1.26611    260420.8
  16773.094   1.58861  -1.26732   261770.48
  16783.174   1.58444  -1.2687   262601.87
  16793.641   1.58023  -1.27008   263775.94
  16803.746   1.57705  -1.27145   264416.72
  16813.863   1.57561    -1.27279   265003.16
  16824.369   1.57211  -1.27352   266685.31
  16834.887   1.57161  -1.27488   267148.16
  16845.420   1.5681  -1.27655   268238.72
  16855.965   1.56495   -1.277803   268615.94
  16866.525    1.565063  -1.27875   269000.87
  16877.477   1.56224  -1.28019   269991.47
  16888.441   1.55698  -1.2815   270751.78
  16899.041   1.55284   -1.282753   271208.78
  16910.416   1.54903  -1.28406    270035.5
  16921.424   1.54907  -1.28535   270822.87
  16932.447   1.54834  -1.28654   271060.97
  16943.865    1.545443  -1.28877   271386.72
  16955.301    1.543181  -1.29044   271523.19
  16966.371   1.53947  -1.29155   271589.37
  16977.836   1.53751  -1.29281   271554.22
  16989.699   1.53386  -1.29402   271758.75
  17001.197    1.530827  -1.29541      271510

File: SrO_10K_03.xdi
# XDI/1.0 EXAFS Data Collector 1.1 AD.RGN
# Column.1: energy eV
# Column.2: mutrans
# Column.3: murefer
# Column.4: i0
# Beamline.name: SSRL 4-3
# Detector.I0: N2 15cm
# Detector.I1: N2+Ar 30cm
# Detector.I2: Ar
# Element.edge: K
# Element.symbol: Sr
# Mono.d_spacing: 1.920128
# Mono.name: Si(220)
# Mono.notes: (?) unfocussed, detuned 50%, clockwise at E=17000eV
# Sample.formula: SrO
# Sample.name: strontium oxide
# Sample.prep: powder
# Sample.reference: SrCO3
# Sample.temperature: 10K
# Scan.start_time: 1995-06-16 02:32:00
# ///
#    Note: mono d_spacing is nominal!
#-------------
#   energy   mutrans        murefer      i0
  15699.933  0.998801  -1.12063   69966.703
  15719.844  0.996022  -1.12349   69206.703
  15740.136  0.992742   -1.126621   68445.703
  15760.152  0.991088  -1.12981   66772.703
  15779.891  0.986467  -1.13266   67148.703
  15800.011  0.983378  -1.13573   66318.703
  15819.854  0.980304  -1.13879   65632.703
  15840.076   0.9774199  -1.14193   64954.699
  15860.021  0.974552  -1.145   64238.699
  15880.018  0.971727  -1.14798   63523.699
  15900.063  0.968914   -1.151072   62807.699
  15920.164  0.96614  -1.15411   62181.699
  15939.978  0.963367  -1.15715   61414.699
  15959.844  0.96011  -1.16011   60590.699
  15980.097  0.958091  -1.16312   60009.699
  16000.064  0.955842   -1.166161   59328.699
  16020.082  0.952867  -1.16911   58615.699
  16040.152  0.950993  -1.17213   57897.699
  16059.933  0.949104   -1.175089   57222.699
  16080.104   0.9484318  -1.17799   56471.699
  16099.984  0.950753   -1.181006   55813.699
  16119.917  0.967358  -1.18387   54969.699
  16122.670  0.973171  -1.1842   55046.699
  16125.079  0.98122  -1.1845   55032.699
  16127.490  0.994307  -1.18497   54792.699
  16129.901   1.017  -1.18505   54822.699
  16132.657   1.08183  -1.18516   54724.699
  16135.069   1.2219  -1.18511   54695.699
  16137.483   1.42523  -1.18445   54601.699
  16139.897   1.5899  -1.18387   54495.699
  16142.657   1.78889  -1.18335   54402.699
  16145.073   1.99755    -1.18172   54303.699
  16147.490   2.05455  -1.18136   54281.699
  16149.907   1.95694  -1.18239   54194.699
  16152.670   1.85949  -1.18409   53990.699
  16155.090   1.8083  -1.18448    108071.4
  16156.473   1.78591  -1.18493   107896.25
  16157.854   1.76568  -1.18525   107820.79
  16159.237   1.74919  -1.18548   107888.02
  16160.968   1.72968  -1.1857   107873.95
  16162.695   1.7071    -1.18634   108028.56
  16164.426   1.68864  -1.18652   108107.87
  16166.157   1.68156  -1.18665   108303.87
  16168.234   1.68825  -1.18691   108128.58
  16170.311    1.700914  -1.18723   107988.97
  16172.388    1.716434  -1.18719   108380.05
  16174.466   1.73729  -1.18764   109558.83
  16176.545   1.765  -1.18764    110022.3
  16178.971   1.79923  -1.18774   110516.45
  16181.399   1.8282  -1.18795   110938.31
  16183.826   1.84365  -1.18834   111474.86
  16186.254   1.83845  -1.18861    112137.1
  16189.030   1.81132   -1.189283   112905.03
  16191.809   1.78873  -1.18976   113445.66
  16194.587   1.77999  -1.19001   114068.98
  16197.366   1.77438  -1.19068   114841.99
  16200.493   1.76285  -1.19126    115589.7
  16203.274   1.74714  -1.19163    116479.1
  16206.405   1.72934  -1.19227   117330.19
  16209.884   1.71973  -1.1928   118309.98
  16213.016   1.72055  -1.19294   119028.45
  16216.499   1.72308  -1.19351   119922.62
  16219.981   1.72337  -1.19388   121043.48
  16223.468   1.73114  -1.19452   121883.05
  16226.954   1.74566  -1.19503    122841.3
  16230.792   1.75759  -1.19549   123846.23
  16234.281   1.75489  -1.19593   124389.87
  16238.122   1.74799  -1.19656    124755.2
  16242.313   1.75387  -1.19693   125666.22
  16246.159    1.759467  -1.19747   127515.94
  16250.354   1.75154  -1.19807   130017.34
  16254.553   1.73486  -1.19892   132065.44
  16258.753   1.72076  -1.19949   133532.23
  16262.957   1.7116  -1.20025   134579.72
  16267.162   1.70874  -1.20065   135497.91
  16271.719   1.71098  -1.20144   136540.78
  16276.280   1.71298  -1.20199   138180.34
  16280.844   1.7136  -1.20253   140320.59
  16285.760   1.71651  -1.20334   142187.55
  16290.328   1.71934   -1.203953    143621.2
  16295.252   1.71603  -1.2047   145606.53
  16300.179   1.71741  -1.20535   147301.56
  16305.459   1.72417  -1.20608   149002.28
  16310.392   1.71747  -1.20662    150544.7
  16315.680    1.706125  -1.20733   152170.81
  16320.972   1.70204  -1.20802   153866.61
  16326.268   1.71004  -1.20875   155589.11
  16331.564   1.71626  -1.20957    157370.3
  16337.221   1.71378  -1.21028   159303.17
  16342.881   1.70633  -1.21113   160948.75
  16348.544   1.69786  -1.21191   162913.02
  16354.211   1.69131  -1.21271   164735.98
  16360.238   1.68408    -1.21351   166514.62
  16365.914   1.6816  -1.2142   168322.97
  16371.948   1.68985  -1.21525   170342.02
  16377.989   1.69708  -1.21583   172280.75
  16384.389   1.70162  -1.2168   174155.17
  16390.438   1.70322  -1.21762    176038.3
  16396.848    1.694985   -1.218478   177962.09
  16403.262   1.68275  -1.21953   179757.61
  16409.684   1.68019  -1.22025    181726.8
  16416.107    1.679565  -1.22121   183809.69
  16422.895   1.67401  -1.22211   185545.27
  16429.332   1.66957  -1.22315   187483.55
  16436.129   1.67298  -1.22422   189603.52
  16443.291    1.676309  -1.22511   191698.17
  16450.104   1.67865  -1.22578   193498.53
  16457.277   1.67693   -1.226872   195328.58
  16464.100   1.67496  -1.22777   197504.31
  16471.289   1.66628  -1.22886   199382.75
  16478.842   1.65974  -1.2299   201349.87
  16486.043   1.6584  -1.2309    203754.7
  16493.611   1.65564  -1.23198    205522.2
  16500.826   1.6575  -1.23286   207559.42
  16508.406   1.66492  -1.23412   209271.31
  16516.357   1.66584  -1.23514   211126.91
  16523.953    1.657943  -1.23641   213081.19
  16531.920   1.65272  -1.23733   214939.17
  16539.531   1.65015  -1.23832   216968.84
  16547.875   1.64225  -1.23945    219153.2
  16555.863   1.63925  -1.24032   220381.25
  16563.859   1.63979  -1.24121      222793
  16572.230   1.63993  -1.24246   224584.45
  16580.607    1.643135  -1.24332   226567.58
  16588.992   1.64287  -1.24426   227907.41
  16597.387   1.6367  -1.24536   229562.94
  16605.793   1.6315  -1.24658   230935.14
  16614.570   1.63111  -1.24752   233273.05
  16622.992   1.62968  -1.24842   234818.66
  16631.789   1.62414  -1.24953   236091.94
  16640.963    1.618334  -1.25074   238042.92
  16649.779   1.61633  -1.25199   239525.61
  16658.604   1.61706    -1.25306   241574.98
  16667.809   1.62053  -1.25405   243103.05
  16677.021   1.61858  -1.25532    244565.8
  16686.246    1.612115   -1.256405   245873.25
  16695.480   1.60702  -1.25753   247482.39
  16705.096   1.60498  -1.25911   248650.23
  16714.723   1.60251  -1.2594   249379.77
  16723.990   1.59714  -1.26057   251652.98
  16733.639   1.59642  -1.26169   252853.91
  16743.670   1.59739  -1.26301   254071.52
  16753.342    1.594501  -1.26439   254963.81
  16763.396   1.59073  -1.26533    256053.8
  16773.094   1.58913   -1.266498   257320.48
  16783.174    1.585211  -1.26789   258104.87
  16793.641   1.58106  -1.26944   258842.94
  16803.746   1.57779  -1.27062    259786.7
  16813.863   1.57596  -1.27141   260280.17
  16824.369   1.57293  -1.27278   261527.33
  16834.887   1.57208  -1.27395   262245.16
  16845.420    1.568101  -1.27502   262697.72
  16855.965   1.56515  -1.27644   263685.94
  16866.525   1.56493  -1.27754   264004.87
  16877.477   1.56225  -1.27901   264266.47
  16888.441   1.5574  -1.28052   264770.78
  16899.041   1.55333  -1.28208   265323.78
  16910.416   1.54871  -1.28319    265509.5
  16921.424   1.54831  -1.28437   266068.87
  16932.447   1.54704   -1.285458   266886.97
  16943.865   1.54303  -1.28701   267163.72
  16955.301   1.54032  -1.28835   267583.19
  16966.371    1.536409  -1.28955   267659.37
  16977.836   1.53466  -1.29116   267585.22
  16989.699   1.53161  -1.29265   266590.75
  17001.197   1.52938  -1.29471      266783

File: SrO_rt_01.xdi
# XDI/1.0 EXAFS Data Collector 1.1 AD.RGN
# Column.1: energy eV
# Column.2: mutrans
# Column.3: mufluor
# Column.4: murefer
# Column.5: i0
# Beamline.name: SSRL 4-3
# Detector.I0: N2 15cm
# Detector.I1: N2+Ar 30cm
# Detector.If: Ar   (Lytle detector, using Rb Filter)
# Detector.I2: Ar
# Element.edge: K
# Element.symbol: Sr
# Mono.d_spacing: 1.920128
# Mono.name: Si(220)
# Mono.notes: (?) unfocussed, detuned 50%, clockwise at E=17000eV
# Sample.formula: SrO
# Sample.name: strontium oxide
# Sample.prep: powder
# Sample.reference: SrCO3
# Sample.temperature: room temperature
# Scan.start_time: 1995-06-14 19:09:21
# ///
#    Note: mono d_spacing is nominal!
#-------------
#   energy   mutrans    mufluor     murefer      i0
  15699.933  -1.62723  0.382814   1.07877   203845.59
  15719.844   -1.632145  0.375697   1.0762   201361.59
  15740.136  -1.63719  0.368559   1.07357   198863.59
  15760.152  -1.6423  0.359983   1.07105   193822.59
  15779.891  -1.64709  0.351354    1.068593   194504.59
  15800.011  -1.65212  0.342877   1.06599   191832.59
  15819.854   -1.657051  0.335825   1.06335   189190.59
  15840.076  -1.66197  0.327003   1.06086   186811.59
  15860.021  -1.66686  0.320076   1.05828   184352.59
  15880.018  -1.67175  0.312028   1.05573   181909.59
  15900.063  -1.67661  0.305901   1.05323   179400.59
  15920.164  -1.68131  0.300582   1.05058   176866.59
  15939.978  -1.6861  0.296313   1.04809   174774.59
  15959.844  -1.69066  0.293715   1.04558   172101.59
  15980.097  -1.69533  0.292139   1.043   169559.59
  16000.064  -1.69978  0.29429   1.04047   167317.59
  16020.082  -1.70408  0.299394   1.03801   164842.59
  16040.152  -1.7081  0.310004   1.03557   162481.59
  16059.933  -1.71148  0.330891    1.033106   160200.59
  16080.104  -1.71377  0.372522    1.030809   157437.59
  16099.984  -1.71254  0.467901   1.02884   155376.59
  16119.917  -1.693  0.839546   1.02872   152783.59
  16122.670  -1.68563  0.957318   1.02925   152327.59
  16125.079  -1.67471     1.13026   1.03014   152159.59
  16127.490  -1.65538   1.42178   1.03189   151769.59
  16129.901  -1.61523   2.01832   1.03583   151704.59
  16132.657  -1.50108   3.59327   1.04766   151239.59
  16135.069  -1.32993   5.6152   1.0671   151099.59
  16137.483  -1.11631   7.68187   1.09202   150519.59
  16139.897   -0.878348   9.24233   1.12337   150250.59
  16142.657 -0.615904   9.25098   1.15516   150109.59
  16145.073 -0.508283   9.27307   1.15892   149751.59
  16147.490 -0.551097   9.2873   1.1441   149521.59
  16149.907 -0.646542   9.32299   1.12638   148948.59
  16152.670 -0.725991   9.33276    1.112419   148792.59
  16155.090 -0.771444    9.366991   1.10691   296495.19
  16156.473 -0.794186    9.368993   1.10525   296502.06
  16157.854 -0.818733   9.38248   1.10415   296290.69
  16159.237 -0.843133   9.39345   1.10349   296267.06
  16160.968 -0.868713   9.40032   1.10359   296559.19
  16162.695 -0.882969   9.42602   1.10481   296446.06
  16164.426 -0.8837   9.44833   1.10692   296546.66
  16166.157 -0.874319   9.47022   1.10898   296687.03
  16168.234 -0.856237   9.52257   1.1112   296050.12
  16170.311 -0.835797   9.52407     1.11303      297175
  16172.388 -0.815258   9.54217   1.11555   297923.59
  16174.466  -0.7946992   9.51294    1.118239   300297.94
  16176.545 -0.776824   9.52876   1.12044   301363.03
  16178.971 -0.760171   9.56233   1.12196   302039.87
  16181.399 -0.749506   9.56849   1.12187   303685.47
  16183.826 -0.746562   9.6024   1.12066   304587.81
  16186.254 -0.749912   9.62799   1.11884   305888.91
  16189.030 -0.757368   9.65516   1.11611   307273.75
  16191.809 -0.76608   9.66001   1.11293   309503.34
  16194.587 -0.778137    9.691943   1.11007   310999.69
  16197.366 -0.794959   9.723   1.10777   312653.75
  16200.493 -0.816504   9.74061   1.10574   314835.59
  16203.274  -0.8327014   9.78885   1.10463   316156.16
  16206.405 -0.844722   9.80697   1.10431    318639.5
  16209.884 -0.849735   9.83111   1.10505   321036.56
  16213.016 -0.848151   9.87005   1.1061   323051.37
  16216.499 -0.842294   9.9094   1.10686   325128.94
  16219.981 -0.835056   9.93756   1.10693   327651.28
  16223.468 -0.827873   9.98045   1.10674   329861.34
  16226.954 -0.821878   10.0231   1.10643   332205.16
  16230.792 -0.819114   10.0992   1.10619   333554.72
  16234.281 -0.82072   10.178   1.10614      334999
  16238.122 -0.824283   10.2092   1.10572   338020.06
  16242.313 -0.827798   10.2226   1.10437   341493.87
  16246.159 -0.831709   10.2136   1.10271   346054.41
  16250.354 -0.836773   10.1885   1.10104   351520.72
  16254.553 -0.842353   10.1711   1.09908   355362.78
  16258.753 -0.848708   10.1278   1.099   358663.56
  16262.957 -0.855175   10.0925   1.09819   360648.09
  16267.162 -0.861699   10.0564    1.097509   364137.41
  16271.719 -0.868251   10.0233   1.09701   367594.44
  16276.280 -0.871425   10.0202   1.09657   371510.22
  16280.844  -0.8699687   10.0547   1.09654   375494.75
  16285.760 -0.866007   10.1028   1.09654   380003.03
  16290.328 -0.863392    10.13722    1.096075   383831.06
  16295.252 -0.86202   10.17   1.0951   387750.84
  16300.179  -0.8606475   10.2008   1.0943   391176.34
  16305.459   -0.861003    10.21762   1.09409   395223.62
  16310.392 -0.865857   10.1975   1.09364   398786.66
  16315.680 -0.872491   10.1671   1.09299   402342.41
  16320.972 -0.875419   10.1645   1.09206   406852.94
  16326.268 -0.876189   10.178   1.09091   411111.19
  16331.564 -0.87697   10.1938   1.08987   414622.22
  16337.221 -0.878349   10.2046   1.08885   419186.97
  16342.881 -0.881191   10.2047   1.0878   422987.47
  16348.544 -0.885755   10.189   1.08701   426664.72
  16354.211 -0.890454   10.1732   1.08651   431750.72
  16360.238  -0.8943293   10.1656   1.08616   435542.47
  16365.914 -0.896271   10.1746   1.08584   439868.97
  16371.948 -0.896307   10.1973    1.085088   444925.22
  16377.989  -0.8965682   10.2201   1.08418   448291.22
  16384.389 -0.898066   10.2342   1.08298   452498.97
  16390.438 -0.899633   10.2487   1.082   456829.44
  16396.848 -0.901699   10.2591   1.08103   460601.69
  16403.262 -0.904683    10.26162   1.08019   464977.66
  16409.684 -0.908778   10.2552   1.07943   469608.41
  16416.107  -0.9131631   10.2461    1.078641   473805.87
  16422.895 -0.917144   10.2413   1.0776   478589.09
  16429.332 -0.919377   10.2527   1.07663   483484.09
  16436.129 -0.920929   10.2659   1.07568   487924.81
  16443.291 -0.922597    10.28145   1.07466   492003.28
  16450.104 -0.924552   10.294   1.07391    495083.5
  16457.277 -0.926801   10.3039   1.0732   499521.47
  16464.100 -0.929455   10.3119   1.07247   504328.19
  16471.289 -0.932837   10.3168   1.07146   508108.66
  16478.842 -0.936105   10.3178   1.07045   511903.84
  16486.043 -0.938676   10.3279   1.0695   515082.81
  16493.611 -0.940817   10.3428   1.06838    519300.5
  16500.826 -0.942523   10.358   1.06744   523083.97
  16508.406 -0.944515   10.375   1.06647   526811.19
  16516.357 -0.94734   10.3841   1.06538   530839.12
  16523.953  -0.9505686   10.3885   1.06444   534377.81
  16531.920 -0.954267   10.3924   1.06345   537933.25
  16539.531 -0.957416   10.3974   1.06256   541986.44
  16547.875 -0.960633   10.4045   1.06137   544467.37
  16555.863 -0.963566   10.4137   1.06035   546756.06
  16563.859 -0.966283   10.4233   1.05932    551762.5
  16572.230 -0.968972   10.4414   1.0582   554213.69
  16580.607 -0.971549   10.4541   1.05711   557100.62
  16588.992 -0.974359   10.465   1.05606   560070.31
  16597.387 -0.977528   10.473   1.05493   562720.75
  16605.793 -0.980744   10.4819    1.053756   565958.94
  16614.570 -0.983996   10.4887   1.05266   569357.81
  16622.992 -0.987127   10.5006   1.05154    572082.5
  16631.789 -0.990419   10.5097    1.050318   573600.94
  16640.963 -0.993817   10.5199   1.04914   576065.06
  16649.779 -0.996835   10.53   1.04802      579009
  16658.604 -0.999789     10.5414   1.04688   581871.69
  16667.809  -1.00303   10.5544   1.04578   582755.06
  16677.021   -1.006467   10.5631   1.04456   585229.25
  16686.246  -1.00996   10.5715   1.0432   587045.12
  16695.480  -1.01329   10.5794   1.04198   589087.81
  16705.096  -1.01665   10.5893   1.04078   590600.19
  16714.723  -1.02014   10.6013   1.03946   591189.31
  16723.990  -1.02328   10.6133   1.03837   593841.25
  16733.639  -1.02655   10.6246   1.03712   595068.87
  16743.670  -1.0299   10.6373   1.03584   595126.25
  16753.342   -1.033322   10.6491   1.03465   597025.44
  16763.396  -1.03678    10.65953   1.03339   598396.31
  16773.094  -1.04018   10.6682   1.03215   600031.94
  16783.174  -1.04362   10.682   1.03083   601034.31
  16793.641  -1.04727   10.6922   1.02947   601492.44
  16803.746  -1.05071   10.7027   1.02823   601228.31
  16813.863  -1.05379   10.7124   1.02706   597797.94
  16824.369  -1.05755   10.7272   1.02567   603400.31
  16834.887  -1.06109   10.7388   1.02438   603523.44
  16845.420  -1.06469   10.7521   1.02298   602065.31
  16855.965  -1.06816   10.7623   1.02181   601800.94
  16866.525  -1.07164   10.774   1.02051   601612.31
  16877.477  -1.07529   10.7859   1.01918   601017.37
  16888.441  -1.07889   10.7972   1.01782   600637.25
  16899.041  -1.0824   10.8087   1.01656   599952.87
  16910.416   -1.086063    10.81846   1.01515   598149.25
  16921.424  -1.08962   10.8322   1.01387   598472.31
  16932.447  -1.09316   10.8439   1.01256   596846.19
  16943.865  -1.09687   10.8563   1.01132   595251.81
  16955.301  -1.1006   10.867   1.00994   592929.12
  16966.371  -1.10419   10.8765   1.00864   591663.25
  16977.836  -1.10782   10.8923   1.00732   589716.06
  16989.699   -1.111598   10.9024   1.00594   588861.69
  17001.197  -1.1153   10.9139   1.00462      585658