Folder: XASDataLibrary/data/Sr

Note: README
The XAS Data Library is designed to hold X-ray Absorption Spectra (EXAFS
and XANES) using an SQLite database, with array data encoded using JSON.
The principle goal for the library is as a proposed standard for storing
and exchanging XAS data. The implementation here is intended for initial
reference and comments. 

The idea is provide a format and set of tools for managing Libraries of
XAFS Data, and to be able to share these libraries between different
researchers and different analysis programs.  As the the base format of the
library will be created with SQLite, the SQL syntax and any third party
software that can use SQL and SQLite will be able to explore the data in
the format.  In addition, reference implementations of programmatically
interecting with the library will be provided.  

Ideally, a stand-alone GUI Data Browser and an on-line Library will be
built upon such a format.

See http://xafs.org/XasDataLibrary for additional information.


--Matt Newville  18-Feb-2011

File: Sr_slawsonite_15K_01.xdi
# XDI/1.0  SSRL EXAFS Data Collector 1.1 AD.RGN
# Column.1: energy eV
# Column.2: mutrans
# Column.3: murefer
# Column.4: i0
# Beamline.name: SSRL 4-3 (?)
# Element.edge: K
# Element.symbol: Sr
# Mono.d_spacing: 1.92009
# Mono.name: Si(220)
# Mono.notes: (?) unfocussed, detuned 50%, clockwise at E=16800eV
# Sample.formula: SrAl2Si2O8
# Sample.name: slawsonite
# Sample.prep: powder mixed with B2O3
# Sample.reference: unknown
# Sample.temperature: 15K
# Scan.start_time: 1997-03-18 12:50:19
# ///
#    Note: mono d_spacing is nominal!
#--------------------------------------------
# energy     mutrans     murefer      i0
  15700.043  0.244357  -1.03166   55173.602
  15719.954  0.241878  -1.0348   54369.602
  15739.919  0.23974    -1.03716   52560.602
  15759.935  0.237503  -1.04112   52473.602
  15780.002  0.233375  -1.04466   51436.602
  15799.958  0.232136  -1.04738   50420.602
  15819.965  0.229801  -1.05039   49375.602
  15840.023  0.226895  -1.05387   48430.602
  15859.968  0.224654  -1.05701   47265.602
  15879.964  0.221276  -1.06056   46362.602
  15900.011  0.21833  -1.06401   45366.602
  15919.941  0.215726  -1.06724   44346.602
  15939.925  0.212491  -1.07095   43504.602
  15959.959  0.210077  -1.07374   42454.602
  15980.045  0.207503  -1.07748   41385.602
  16000.012   0.2044181  -1.0805   40638.602
  16020.030  0.201444  -1.08403   39803.602
  16039.929  0.199007  -1.08731   38830.602
  16060.049  0.197098  -1.09022   37968.602
  16080.051  0.19798  -1.09113   36902.602
  16082.448  0.198633  -1.09147   36820.602
  16084.846  0.19956  -1.09131   36588.602
  16087.415  0.200976  -1.09089   36388.602
  16089.813  0.203156  -1.09051   36166.602
  16092.214  0.206689  -1.08966   36053.602
  16094.785  0.213239  -1.08792   35905.602
  16097.187  0.228497  -1.08432   35649.602
  16099.588  0.26393  -1.07623   35470.602
  16102.162  0.335168  -1.05735   35206.602
  16104.565  0.41941  -1.02008   35202.602
  16106.970  0.500239 -0.968303   34958.602
  16109.547  0.530661 -0.925694   34722.602
  16111.952  0.508017 -0.902566   34631.602
  16114.359  0.480113 -0.908473   34255.602
  16116.767  0.459536 -0.926799   34197.602
  16119.345  0.446586 -0.948804   33993.602
  16121.754  0.435272 -0.963435   33830.602
  16124.163  0.424699 -0.969204   33621.602
  16126.746  0.415639 -0.970939   33489.602
  16129.157  0.412186 -0.971683   33215.602
  16131.568  0.415172 -0.970109   32919.602
  16133.980  0.420399 -0.967101     32720.6
  16136.568  0.428234 -0.96294     32672.6
  16138.981  0.437092 -0.959537     32619.6
  16141.396  0.446679  -0.9558034     32444.6
  16143.812  0.454658 -0.951767     32310.6
  16146.400  0.460796 -0.949959     31916.6
  16148.817  0.458568 -0.949306     31826.6
  16151.062  0.453779 -0.950504   63256.184
  16153.481  0.447687 -0.952439   62795.063
  16155.727   0.4427678 -0.954886   62238.816
  16158.146  0.439069 -0.958175   61862.449
  16160.740  0.435666  -0.9618457   61440.957
  16163.334  0.433023 -0.965207   60941.344
  16166.102   0.4295651 -0.967984   60609.605
  16168.871  0.425043 -0.970163   60329.746
  16171.642  0.419446 -0.972046   59867.762
  16174.586   0.4144569 -0.972615   59635.656
  16177.705  0.412824 -0.971763    59753.43
  16180.825  0.41551 -0.969926   60184.078
  16183.946  0.421294 -0.968759   60531.605
  16187.242  0.427841 -0.968888   60639.008
  16190.539   0.4329311 -0.968936   60758.289
  16194.011  0.434738 -0.969324   60697.445
  16197.485  0.433764  -0.9701223    60356.48
  16201.134  0.431629  -0.9702189   60243.391
  16204.785  0.428191 -0.970819    60242.18
  16208.612  0.423772 -0.971974   60090.848
  16212.439   0.4188402 -0.973797   59998.391
  16216.271  0.414207 -0.975699   60069.809
  16220.276  0.41073 -0.977904   60118.109
  16224.459  0.409138 -0.979807   60197.281
  16228.644  0.40971  -0.9811265   60260.336
  16232.832  0.411238 -0.98186   60195.266
  16237.194  0.412123 -0.982593    60331.07
  16241.561  0.41151 -0.983234   60288.754
  16246.104  0.41075 -0.983554   60225.313
  16250.650  0.410512  -0.9836423   60631.754
  16255.199  0.409213 -0.983622   60696.066
  16259.925  0.408783 -0.984584   61151.258
  16264.830  0.409581 -0.986176   61160.328
  16269.737  0.409366 -0.98689   61259.273
  16274.646  0.407253  -0.9875807   61210.098
  16279.736  0.405577 -0.988086   61428.801
  16284.828  0.404883 -0.988831   61768.379
  16290.099   0.4047037 -0.990589   61942.832
  16295.373   0.4026598 -0.992075   62034.164
  16300.827  0.399526 -0.993419   62067.375
  16306.286  0.397321 -0.994669   62435.461
  16311.748   0.3952059 -0.995969   62526.426
  16317.388  0.39343 -0.997014   62713.266
  16323.212  0.394178 -0.997465   62750.984
  16328.861  0.39581 -0.998001   62934.578
  16334.867  0.396554 -0.998801   62985.051
  16340.703  0.395899  -0.9997128   63186.402
  16346.719  0.394281  -1.001   63419.629
  16352.918  0.391656  -1.00257   63578.734
  16359.119  0.389602  -1.00404   63837.715
  16365.326  0.386295  -1.00517    63873.57
  16371.717  0.38433  -1.00629   64126.309
  16378.111  0.383824  -1.00695   64770.922
  16384.689  0.383273  -1.00843    64377.41
  16391.271  0.382866   -1.010061   64431.777
  16398.039  0.382341  -1.01143    64742.02
  16404.813  0.384049  -1.01294   65197.145
  16411.590  0.379895  -1.01409   65211.141
  16418.553  0.378278  -1.01497   65131.016
  16425.521  0.37712  -1.01607    65472.77
  16432.676  0.375728  -1.01738   65518.398
  16439.834  0.376368  -1.01841   66171.906
  16447.180  0.372857  -1.01981   65807.289
  16454.354  0.372085   -1.021238   66273.555
  16461.891  0.370507  -1.02248   66486.688
  16469.438  0.369475  -1.02407   66840.711
  16476.988  0.368596  -1.02544   66907.602
  16484.549  0.36686  -1.02674   66876.367
  16492.295  0.363996  -1.02797   67168.016
  16500.229  0.362212  -1.02934   67215.539
  16508.172  0.360396  -1.03037   67364.945
  16516.121   0.3595593  -1.03191   67499.227
  16524.080  0.358883  -1.03367   67287.375
  16532.227  0.357591  -1.03488   67703.414
  16540.563  0.356371    -1.03611    67987.32
  16548.906  0.355015  -1.03756   68178.109
  16557.262   0.3531622  -1.0389   67865.773
  16565.807  0.350796  -1.04065   67921.313
  16574.357  0.348957  -1.04202   67953.734
  16582.922  0.346576  -1.04297   68134.031
  16591.674  0.345264  -1.04457   68130.203
  16600.438  0.344194  -1.04606   67822.258
  16609.393  0.342611  -1.04742    68511.18
  16618.357  0.340908  -1.0491   68142.984
  16627.332  0.338906  -1.05084   68462.672
  16636.502  0.337287  -1.05236   68242.227
  16645.682  0.335723  -1.05324   68256.664
  16655.053  0.334441   -1.055033   68356.977
  16664.254  0.332834  -1.05659   68225.172
  16673.832  0.330316  -1.05842   68443.234
  16683.420  0.328926  -1.05992    68352.18
  16693.023   0.3270502  -1.06169   68508.008
  16702.635  0.324797  -1.06296   68459.703
  16712.445  0.322065  -1.06426   68436.281
  16722.264  0.321136  -1.06611   68018.734
  16732.281  0.319973  -1.06783   68233.063
  16742.313  0.318366  -1.0696   68178.273
  16752.355  0.315912  -1.0709   68175.359
  16762.596  0.314625  -1.07276    67921.32
  16772.852   0.3130657  -1.07423   67716.156
  16783.117  0.311081  -1.07608   67569.875
  16793.584  0.309794  -1.07797   67931.469
  16804.063  0.306688  -1.07912   67471.938
  16814.744  0.305089  -1.08097   67491.289
  16825.438  0.303854  -1.08229   67541.516
  16836.146  0.301861  -1.08389   67438.617
  16847.059   0.2999957  -1.0854   67264.594
  16857.982  0.298139  -1.0871   66878.453
  16868.922   0.2957252  -1.08905   66944.188
  16880.064  0.294508  -1.09097   66538.797
  16891.223  0.291981  -1.09223   66465.289
  16902.396  0.28944  -1.0937   66800.656
  16913.773  0.287897  -1.09544   66565.898
  16925.166  0.286024  -1.09743   66444.016
  16936.576  0.28442  -1.09949   66429.016
  16948.191  0.282083  -1.10106   66327.883
  16959.822   0.2804303  -1.10265   65996.641
  16971.471  0.278574  -1.10448   65885.266
  16983.326  0.276438  -1.10624   65847.773
  16995.197  0.274093  -1.10784   65721.156
  17001.332  0.273278  -1.10876   65877.797

File: Sr_slawsonite_15K_02.xdi
# XDI/1.0  SSRL EXAFS Data Collector 1.1 AD.RGN
# Column.1: energy eV
# Column.2: mutrans
# Column.3: murefer
# Column.4: i0
# Beamline.name: SSRL 4-3 (?)
# Element.edge: K
# Element.symbol: Sr
# Mono.d_spacing: 1.92009
# Mono.name: Si(220)
# Mono.notes: (?) unfocussed, detuned 50%, clockwise at E=16800eV
# Sample.formula: SrAl2Si2O8
# Sample.name: slawsonite
# Sample.prep: powder mixed with B2O3
# Sample.reference: unknown
# Sample.temperature: 15K
# Scan.start_time: 1997-03-18 12:50:19
# ///
#    Note: mono d_spacing is nominal!
#--------------------------------------------
# energy     mutrans     murefer      i0
  15700.043  0.26511  -1.01748   37011.602
  15719.954  0.260782  -1.02247   36502.602
  15739.919  0.257017  -1.02502   35611.602
  15759.935  0.253049  -1.02975   35166.602
  15780.002  0.249454   -1.033848   34316.602
  15799.958  0.245775  -1.03756   33621.602
  15819.965  0.24218  -1.04154   32885.602
  15840.023  0.238724  -1.04528     32218.6
  15859.968  0.235  -1.04934     31505.6
  15879.964  0.23161  -1.05312     30763.6
  15900.011  0.228364  -1.05732     29981.6
  15919.941  0.225102  -1.06152     29311.6
  15939.925  0.222119  -1.0655     28678.6
  15959.959  0.218875  -1.06966     28086.6
  15980.045  0.215537   -1.073345     27325.6
  16000.012  0.212528  -1.07746     26601.6
  16020.030  0.208856  -1.08108     26087.6
  16039.929  0.206277   -1.084822     25361.6
  16060.049  0.204378  -1.08881     24713.6
  16080.051  0.204591  -1.09101     24225.6
  16082.448  0.204825    -1.09062     24092.6
  16084.846  0.205613   -1.090417     24068.6
  16087.415  0.207143  -1.09029     23940.6
  16089.813  0.20919  -1.09027     23941.6
  16092.214  0.21283  -1.08913     23839.6
  16094.785  0.219561   -1.087159     23726.6
  16097.187  0.234543  -1.08371     23696.6
  16099.588  0.269873  -1.0758     23537.6
  16102.162  0.340493  -1.05643     23536.6
  16104.565  0.424232  -1.0187     23692.6
  16106.970  0.504462 -0.965212     23351.6
  16109.547  0.534927 -0.920759     23317.6
  16111.952   0.5132603 -0.896333     23001.6
  16114.359  0.486858 -0.899894     23116.6
  16116.767  0.465649 -0.918107     23104.6
  16119.345  0.451971 -0.940905     23051.6
  16121.754  0.44099 -0.957111     22835.6
  16124.163   0.4303311 -0.963325     22842.6
  16126.746  0.421454 -0.965438     22727.6
  16129.157   0.4176081 -0.96598     22494.6
  16131.568  0.420404 -0.964563     22423.6
  16133.980  0.425843 -0.961418     22357.6
  16136.568  0.433518  -0.9571344     22267.6
  16138.981  0.441787 -0.953379     22203.6
  16141.396  0.451758 -0.949806     22160.6
  16143.812   0.4599637 -0.945612     22143.6
  16146.400  0.463914 -0.942181     22043.6
  16148.817  0.46212 -0.942131     21913.6
  16151.062  0.457175 -0.942918   43734.184
  16153.481  0.450848 -0.945041   43615.063
  16155.727  0.445954 -0.947418   43432.816
  16158.146  0.442024 -0.950724   43157.449
  16160.740  0.438991 -0.955087   42744.957
  16163.334  0.435879 -0.958821   42694.344
  16166.102  0.432738 -0.961437   42492.605
  16168.871  0.428705 -0.963923   42339.746
  16171.642   0.4225411 -0.965354   42446.762
  16174.586  0.417341 -0.966026   42125.656
  16177.705  0.415583 -0.964753    42426.43
  16180.825  0.418606  -0.9636804   42593.078
  16183.946  0.424357 -0.962617   43286.605
  16187.242  0.430852 -0.962303   43533.008
  16190.539   0.4358101 -0.962449   43396.289
  16194.011   0.4373949 -0.962589   43659.445
  16197.485   0.4361932 -0.96306    43590.48
  16201.134  0.43454 -0.963554   43543.391
  16204.785  0.43093 -0.963839    43514.18
  16208.612  0.426717 -0.964874   43753.848
  16212.439  0.4231 -0.967029   43885.391
  16216.271  0.418261 -0.968962   44032.809
  16220.276  0.414804 -0.971239   44128.109
  16224.459  0.413047  -0.9733947   44043.281
  16228.644  0.413222 -0.974322   44362.336
  16232.832  0.415109 -0.975315   44853.266
  16237.194  0.415898 -0.975981    44885.07
  16241.561  0.415275 -0.976452   44542.754
  16246.104     0.41411 -0.976175   45013.313
  16250.650  0.413295 -0.976501   44964.754
  16255.199  0.41268 -0.976501   45082.066
  16259.925   0.4122657 -0.977629   45161.258
  16264.830  0.412166 -0.978392   45476.328
  16269.737  0.41133 -0.979258   45828.273
  16274.646  0.409879 -0.979697   45833.098
  16279.736   0.4078994 -0.980458   46226.801
  16284.828  0.407537 -0.981664   46157.379
  16290.099  0.406927 -0.982993   46409.832
  16295.373  0.404838 -0.984679   46693.164
  16300.827  0.401669 -0.985796   47523.375
  16306.286  0.399728 -0.987403   47109.461
  16311.748  0.397257 -0.988657   47292.426
  16317.388  0.39567 -0.989664   47529.266
  16323.212   0.3967085 -0.990295   47616.984
  16328.861  0.398619 -0.990457   48197.578
  16334.867  0.399159 -0.991164   48181.051
  16340.703  0.398784 -0.99263   48385.402
  16346.719  0.396981  -0.9940706   48503.629
  16352.918  0.394208 -0.995119   49122.734
  16359.119  0.391995 -0.996855   49093.715
  16365.326   0.3888512 -0.997946    49651.57
  16371.717  0.387278 -0.999171   49755.309
  16378.111  0.386126 -0.999669   49699.922
  16384.689  0.385813  -1.00131    50193.41
  16391.271  0.38468  -1.00206   50359.777
  16398.039   0.3841007   -1.003971    50549.02
  16404.813  0.383168  -1.00515   50752.145
  16411.590  0.38161  -1.00668   51321.141
  16418.553  0.379943   -1.007107   51391.016
  16425.521  0.37823  -1.00861    51498.77
  16432.676  0.375988   -1.009546   51865.398
  16439.834  0.374599  -1.01066   52179.906
  16447.180  0.373918  -1.01157   52190.293
  16454.354  0.373436  -1.01334   52755.551
  16461.891  0.372048   -1.014774   52875.691
  16469.438  0.370347  -1.01607   52904.707
  16476.988  0.368849  -1.01714   53101.602
  16484.549  0.367211   -1.018497   53333.371
  16492.295  0.364836  -1.01986    53791.02
  16500.229  0.363047  -1.02124   53646.543
  16508.172  0.361525  -1.0227   54374.945
  16516.121  0.359723  -1.02388   54350.223
  16524.080  0.360156   -1.025387   54961.379
  16532.227  0.359311  -1.02688    54801.41
  16540.563  0.357145  -1.02792    54902.32
  16548.906  0.355891  -1.02935   55385.109
  16557.262  0.353667  -1.03059   55508.773
  16565.807   0.3514624  -1.03197   55996.316
  16574.357  0.349987  -1.03329   55744.734
  16582.922  0.348044  -1.03473   56180.031
  16591.674  0.346652  -1.03623   56217.203
  16600.438   0.3453437  -1.0379   56459.254
  16609.393  0.343909   -1.039356   56535.184
  16618.357   0.3421254  -1.04065   56694.988
  16627.332  0.340273  -1.04232   57001.668
  16636.502  0.33867  -1.04393    57290.23
  16645.682  0.337445  -1.04548   57457.664
  16655.053   0.3355675  -1.04716    57632.98
  16664.254  0.333756  -1.04847   57741.168
  16673.832  0.331586  -1.05053   57790.238
  16683.420   0.3297312  -1.05178   58157.184
  16693.023  0.328173  -1.05356   58405.004
  16702.635   0.3257985  -1.05495   58261.703
  16712.445  0.324533  -1.05666   58595.281
  16722.264  0.323404  -1.05855   58975.734
  16732.281  0.322009  -1.06029   58917.066
  16742.313  0.320083   -1.062132   59047.273
  16752.355  0.317546   -1.063355   58912.359
  16762.596  0.315332  -1.06475    58862.32
  16772.852  0.313806   -1.066936    58970.16
  16783.117  0.312455  -1.06894   59166.875
  16793.584  0.310404  -1.07004   59078.469
  16804.063  0.307991  -1.07178   59584.941
  16814.744   0.3060521  -1.07338   59314.289
  16825.438  0.30422  -1.0748   59313.516
  16836.146  0.301621  -1.0759   59442.617
  16847.059   0.3002359  -1.07816   59626.598
  16857.982  0.298331  -1.0799   59479.453
  16868.922  0.296037  -1.08158   59687.188
  16880.064   0.2944791  -1.08328   59636.801
  16891.223  0.293694  -1.08535   59573.289
  16902.396  0.290953  -1.08691   59616.652
  16913.773  0.28929  -1.08899   59752.895
  16925.166  0.28722  -1.09059   59632.016
  16936.576  0.284794   -1.091839   59825.012
  16948.191  0.283274  -1.09377   59924.887
  16959.822  0.281194  -1.09584   59864.637
  16971.471  0.27852  -1.09675   59812.266
  16983.326  0.27634  -1.09918   59924.773
  16995.197  0.275816  -1.10073   60000.156
  17001.332  0.274983  -1.10194   60027.801

File: Sr_slawsonite_15K_03.xdi
# XDI/1.0  SSRL EXAFS Data Collector 1.1 AD.RGN
# Column.1: energy eV
# Column.2: mutrans
# Column.3: murefer
# Column.4: i0
# Beamline.name: SSRL 4-3 (?)
# Element.edge: K
# Element.symbol: Sr
# Mono.d_spacing: 1.92009
# Mono.name: Si(220)
# Mono.notes: (?) unfocussed, detuned 50%, clockwise at E=16800eV
# Sample.formula: SrAl2Si2O8
# Sample.name: slawsonite
# Sample.prep: powder mixed with B2O3
# Sample.reference: unknown
# Sample.temperature: 15K
# Scan.start_time: 1997-03-18 12:50:19
# ///
#    Note: mono d_spacing is nominal!
#--------------------------------------------
# energy     mutrans     murefer      i0
  15700.043  0.267319  -1.01336   33278.602
  15719.954  0.26316  -1.0178   32799.602
  15739.919  0.259058  -1.02102     32105.6
  15759.935  0.255354  -1.02585     31630.6
  15780.002  0.251689  -1.02971     30776.6
  15799.958  0.2479  -1.03366     30133.6
  15819.965  0.244243  -1.03752     29437.6
  15840.023  0.240813  -1.04187     28896.6
  15859.968  0.237226  -1.04588     28165.6
  15879.964  0.233917  -1.04999     27492.6
  15900.011  0.230619  -1.05426     26899.6
  15919.941  0.227116  -1.05842     26259.6
  15939.925  0.223939  -1.06258     25604.6
  15959.959  0.220534  -1.06683     24936.6
  15980.045  0.21727  -1.07045     24385.6
  16000.012  0.213921  -1.07472     23761.6
  16020.030  0.210928  -1.07885     23180.6
  16039.929   0.2081696    -1.08237     22695.6
  16060.049  0.206134  -1.08628     22043.6
  16080.051  0.206565  -1.08804     21573.6
  16082.448  0.206782  -1.08757     21499.6
  16084.846  0.207416  -1.08775     21520.6
  16087.415  0.209204  -1.08768     21418.6
  16089.813  0.2113  -1.08734     21269.6
  16092.214  0.214333  -1.08644     21232.6
  16094.785  0.221342  -1.08454     21158.6
  16097.187  0.236236  -1.08073     21169.6
  16099.588  0.271486  -1.073     20921.6
  16102.162  0.341873  -1.05306     20911.6
  16104.565   0.4251016  -1.01425     20956.6
  16106.970  0.50547 -0.959274     20931.6
  16109.547  0.535117  -0.9137708     20789.6
  16111.952   0.5151323  -0.8881022     20694.6
  16114.359  0.488233 -0.891718     20557.6
  16116.767  0.466665 -0.910367     20584.6
  16119.345  0.453796 -0.93428     20516.6
  16121.754   0.4430003 -0.950478     20453.6
  16124.163  0.432114 -0.956687     20230.6
  16126.746  0.423169 -0.958999     20230.6
  16129.157  0.418974 -0.959072     20159.6
  16131.568  0.422045 -0.958316     20038.6
  16133.980  0.427047 -0.954703     20022.6
  16136.568  0.434265 -0.949933     20113.6
  16138.981  0.443559 -0.94654     19958.6
  16141.396   0.4530672 -0.942185     19919.6
  16143.812  0.461431 -0.938097     19842.6
  16146.400  0.465582 -0.935415     19598.6
  16148.817  0.463349 -0.934442     19745.6
  16151.062  0.458791 -0.935646   39063.184
  16153.481  0.452702 -0.937751   39211.063
  16155.727  0.448151 -0.940458   38764.816
  16158.146  0.444461 -0.943821   38652.449
  16160.740  0.440358  -0.9478244   38618.957
  16163.334  0.437115 -0.951258   38356.344
  16166.102  0.433619  -0.9542286   38154.605
  16168.871  0.429458 -0.957035   38327.746
  16171.642  0.423759 -0.958914   38237.762
  16174.586  0.418886 -0.959271   37979.656
  16177.705  0.417268 -0.958519    38234.43
  16180.825  0.419764 -0.956776   38709.078
  16183.946  0.425769 -0.955905   38862.605
  16187.242  0.431834 -0.95521   39128.008
  16190.539  0.437235 -0.955329   39192.289
  16194.011  0.438441 -0.955654   39398.445
  16197.485  0.437575 -0.956151    39290.48
  16201.134  0.435797 -0.956321   39321.391
  16204.785  0.432095 -0.956621    39219.18
  16208.612    0.427639 -0.957771   39309.848
  16212.439  0.423114 -0.959531   39336.391
  16216.271  0.418854 -0.962024   39537.809
  16220.276  0.415268 -0.964588   39639.109
  16224.459  0.413 -0.966367   39587.281
  16228.644   0.4132081 -0.967433   39772.336
  16232.832  0.415377 -0.968599   40049.266
  16237.194  0.415966 -0.9691    40051.07
  16241.561  0.414607 -0.969196   40254.754
  16246.104  0.414464 -0.969818   40293.313
  16250.650  0.414007 -0.969657   40350.754
  16255.199  0.413032 -0.969966   40866.066
  16259.925  0.412649 -0.970932   40945.258
  16264.830  0.413278 -0.971955   41079.328
  16269.737  0.413088  -0.9727305   41214.273
  16274.646  0.410183 -0.973151   41511.098
  16279.736  0.408669 -0.974073   41547.801
  16284.828  0.408044 -0.974987   41950.379
  16290.099  0.407609 -0.976398   42182.832
  16295.373  0.405246 -0.977702   42267.164
  16300.827  0.402032 -0.979126   42525.375
  16306.286  0.400483 -0.980635   42764.461
  16311.748  0.398154 -0.981661   42830.426
  16317.388  0.396162 -0.982563   43207.266
  16323.212  0.397148 -0.983547   43500.984
  16328.861   0.3989138 -0.983817   43757.578
  16334.867  0.39944 -0.984639   44151.051
  16340.703  0.399112 -0.985704   44065.402
  16346.719   0.3971517 -0.986608   44355.629
  16352.918  0.395251 -0.988405   44912.734
  16359.119  0.392505 -0.990024   44787.715
  16365.326  0.389308 -0.991116    45110.57
  16371.717  0.387006 -0.991966   45153.309
  16378.111  0.38634 -0.992892   45417.922
  16384.689  0.385463 -0.994194    45841.41
  16391.271  0.384732 -0.995548   46167.777
  16398.039  0.384479 -0.997223    46542.02
  16404.813  0.383134 -0.998607   46643.145
  16411.590  0.38179 -0.999544   46852.141
  16418.553  0.379986  -1.00001   46847.016
  16425.521  0.378577  -1.0013    47201.77
  16432.676  0.376595  -1.00243   47322.398
  16439.834  0.374809  -1.00352   47484.906
  16447.180  0.37445  -1.00496   48101.293
  16454.354  0.373403  -1.00634   48234.551
  16461.891  0.371785  -1.00781   48368.691
  16469.438  0.370134   -1.008878   48798.707
  16476.988  0.369413  -1.01046   48676.602
  16484.549  0.367726  -1.01181   49238.371
  16492.295  0.365005  -1.01299    49261.02
  16500.229  0.363427  -1.01429   49786.543
  16508.172  0.362336   -1.015971   49940.945
  16516.121  0.361064   -1.017217   50160.223
  16524.080   0.3595063  -1.01868   50371.379
  16532.227  0.357835  -1.01982    50624.41
  16540.563  0.356749  -1.02156    50890.32
  16548.906  0.355881  -1.02329   51105.109
  16557.262   0.3540906  -1.02442   51435.773
  16565.807  0.351976    -1.02629   51698.316
  16574.357  0.349972  -1.02712   52119.734
  16582.922  0.348038  -1.02863   51843.031
  16591.674  0.345916  -1.03012   52275.203
  16600.438  0.344741  -1.03166   52471.254
  16609.393  0.342868  -1.03283   52655.184
  16618.357  0.341171  -1.03454   52904.988
  16627.332  0.339618  -1.03662   53176.668
  16636.502  0.337949  -1.03816    53407.23
  16645.682  0.336078  -1.0395   53614.664
  16655.053  0.33534  -1.04141    53632.98
  16664.254  0.333116  -1.0425   53927.168
  16673.832  0.331849  -1.04469   54097.238
  16683.420  0.329925  -1.04621   54431.184
  16693.023  0.327945  -1.04809   54505.004
  16702.635  0.325237  -1.04922   54838.703
  16712.445  0.323886  -1.05094   54805.281
  16722.264  0.321523  -1.05285   55092.734
  16732.281  0.320637   -1.054406   55190.066
  16742.313  0.318381  -1.05605   55079.273
  16752.355  0.316475  -1.05759   55351.359
  16762.596  0.315088   -1.059195    55297.32
  16772.852  0.312891  -1.06095    55324.16
  16783.117  0.310838  -1.06294   55513.875
  16793.584  0.308642  -1.06417   55826.469
  16804.063  0.307668  -1.06592   55990.941
  16814.744  0.306349   -1.068363   56017.289
  16825.438  0.304472  -1.06982   56067.516
  16836.146  0.303043  -1.07161   56273.617
  16847.059  0.30075  -1.07358   56343.598
  16857.982  0.298564  -1.07481   56146.453
  16868.922  0.295922   -1.076328   56498.188
  16880.064  0.29436  -1.07846   56292.801
  16891.223  0.292563  -1.08016   56290.289
  16902.396   0.2914379  -1.08176   56461.652
  16913.773  0.290156   -1.084165   56525.895
  16925.166  0.287319  -1.08599   56631.016
  16936.576  0.283759  -1.08732   56994.012
  16948.191  0.281496  -1.08912   56632.887
  16959.822  0.279863  -1.091   56731.637
  16971.471  0.278638  -1.09307   56924.266
  16983.326  0.276577   -1.094329   57094.773
  16995.197  0.274737   -1.096632   57016.156
  17001.332  0.273438  -1.09785   57028.801