Folder: XASDataLibrary/data/Sr (part 7)

File: SrSO4_rt_01.xdi
# XDI/1.0 EXAFS Data Collector 1.1 AD.RGN
# Column.1: energy eV
# Column.2: mutrans
# Column.3: mufluor
# Column.4: murefer
# Column.5: i0
# Beamline.name: SSRL 4-3
# Detector.I0: N2 15cm
# Detector.I1: N2+Ar 30cm
# Detector.If: Ar   (Lytle detector, using Rb Filter)
# Detector.I2: Ar
# Element.edge: K
# Element.symbol: Sr
# Mono.d_spacing: 1.920128
# Mono.name: Si(220)
# Mono.notes: (?) unfocussed, detuned 50%, clockwise at E=17000eV
# Sample.formula: SrSO4
# Sample.name: strontium sulfate
# Sample.prep: powder
# Sample.reference: SrCO3
# Sample.temperature: room temperature
# Scan.start_time: 1995-06-14 22:11:02
# ///
#    Note: mono d_spacing is nominal!
#-------------
#   energy   mutrans      mufluor    murefer      i0
  15699.933  -1.71536  0.753183  0.657926   151580.59
  15719.844  -1.71903  0.73595  0.65377   149830.59
  15740.136  -1.72294  0.71913  0.649544   148113.59
  15760.152  -1.72674  0.703397  0.645271   144579.59
  15779.891  -1.73027  0.683969  0.641462   145152.59
  15800.011  -1.73393  0.666235  0.637366   143315.59
  15819.854  -1.73759  0.64862  0.633484   141825.59
  15840.076  -1.74143  0.631464  0.629525   140153.59
  15860.021  -1.74514  0.615507  0.625473   138641.59
  15880.018  -1.74892   0.6002174  0.621594   136808.59
  15900.063  -1.75269  0.58616  0.617647   135249.59
  15920.164  -1.75635  0.573174  0.613863   133641.59
  15939.978  -1.76002  0.560511  0.610094   132052.59
  15959.844  -1.76363  0.549732  0.606346    130450.6
  15980.097   -1.767518  0.542918  0.602497    129028.6
  16000.064  -1.77108  0.536655  0.598752    127420.6
  16020.082  -1.7747  0.534325  0.595149    125698.6
  16040.152  -1.77803  0.539527  0.591344    124184.6
  16059.933  -1.78134  0.551667  0.587797    122680.6
  16080.104  -1.78419  0.582076  0.584316    120894.6
  16099.984  -1.7856  0.655307   0.5810839    119357.6
  16119.917   -1.781121  0.92918     0.57905    117815.6
  16122.670  -1.77867   1.01057  0.578014    117481.6
  16125.079  -1.77541   1.11913  0.577163    117244.6
  16127.490  -1.77052   1.27959  0.576959    116963.6
  16129.901   -1.762674   1.53647  0.57804    116822.6
  16132.657  -1.7445   2.13526  0.584618    116562.6
  16135.069  -1.70682   3.33239  0.599397    116273.6
  16137.483  -1.62435   5.80152  0.620657    116058.6
  16139.897   -1.486883   9.52075   0.6469346    115840.6
  16142.657  -1.33317   12.0151  0.674293    115551.6
  16145.073  -1.30213   12.0441  0.680377    115273.6
  16147.490  -1.35709   12.074  0.668547    114988.6
  16149.907  -1.41684   11.1001  0.650451    114865.6
  16152.670  -1.44772   10.3451  0.633671    114454.6
  16155.090  -1.455    10.17637  0.625856    228382.2
  16156.473  -1.45742   10.1163   0.6226187   228027.08
  16157.854  -1.45942   10.0636  0.620145    227729.7
  16159.237  -1.46033   10.0404  0.618108   227465.06
  16160.968  -1.45921    10.07541  0.616267   227529.19
  16162.695  -1.45576   10.1719  0.615176   227628.05
  16164.426   -1.450534   10.3107  0.61512   227904.66
  16166.157  -1.44427   10.4873  0.615686   227442.02
  16168.234  -1.43771   10.6473   0.6163462   227127.12
  16170.311  -1.43665   10.6613  0.617121   227604.98
  16172.388   -1.437969   10.6412  0.618559   228495.59
  16174.466  -1.43607   10.7125  0.620498   230021.94
  16176.545  -1.43134   10.8429  0.621892   230624.05
  16178.971  -1.42391   11.0421  0.622512   231647.89
  16181.399  -1.41714   11.2192  0.621419   232241.48
  16183.826  -1.4153   11.2708  0.619298   233430.83
  16186.254  -1.41995   11.1617  0.616733   234365.92
  16189.030  -1.42945   10.9353  0.613531   235444.75
  16191.809  -1.43625   10.7812  0.609784   236374.34
  16194.587  -1.43902   10.7269  0.606125   237687.67
  16197.366  -1.44137   10.6844  0.602995   239105.75
  16200.493  -1.44512   10.6057   0.6001577   240612.59
  16203.274   -1.447171   10.5606   0.5979691   242343.17
  16206.405  -1.44869   10.5483  0.596733   244312.48
  16209.884  -1.45105   10.5062   0.5966519   245603.56
  16213.016  -1.45308   10.4771  0.59704   247598.39
  16216.499  -1.4537   10.4828  0.597237   249165.95
  16219.981  -1.45242   10.5417  0.596723   251014.27
  16223.468  -1.44969   10.6417  0.595892   252832.33
  16226.954  -1.44529   10.7887  0.594877   254488.14
  16230.792  -1.44093   10.942  0.593953    255484.7
  16234.281  -1.44015   10.9856   0.5932885   256849.02
  16238.122  -1.44362   10.8787  0.592384   259168.06
  16242.313  -1.4508   10.6684  0.590715   262168.87
  16246.159  -1.45688   10.5249  0.588717   265399.41
  16250.354  -1.46111   10.48  0.586678   269071.72
  16254.553  -1.46244   10.5072  0.584756   272299.78
  16258.753  -1.46239   10.5543  0.583175   274920.56
  16262.957  -1.46313   10.5649  0.58209   277028.09
  16267.162  -1.4641   10.5528  0.581124   278958.41
  16271.719  -1.46515   10.5291  0.580249   281864.44
  16276.280  -1.46596   10.5276  0.579322   285176.22
  16280.844  -1.46644   10.5641  0.578783   288712.75
  16285.760  -1.46632   10.6076  0.578456   292067.03
  16290.328  -1.46636   10.6391  0.577701   295448.06
  16295.252  -1.46725   10.6478  0.576393   298516.84
  16300.179  -1.46853    10.64523  0.575302   301574.34
  16305.459  -1.46932   10.6625   0.5747915   304771.62
  16310.392  -1.47093   10.6498    0.574141   307686.66
  16315.680   -1.473898   10.61  0.573224   310961.41
  16320.972  -1.47595   10.5938   0.5720439   314042.94
  16326.268  -1.47715   10.5978  0.570651   317128.19
  16331.564  -1.47754   10.625  0.569355   321105.22
  16337.221  -1.47863   10.6375  0.568098   324386.97
  16342.881  -1.48037   10.6256  0.566939   327585.47
  16348.544  -1.48206   10.6247  0.565915   330878.72
  16354.211  -1.48363   10.6246  0.565222   334576.72
  16360.238  -1.48517   10.6261  0.564792   338274.47
  16365.914  -1.48641   10.633  0.564268   341641.97
  16371.948  -1.4878   10.6384  0.563482   345265.22
  16377.989  -1.48933   10.6441  0.562473   349077.22
  16384.389  -1.49122   10.6381  0.561268   352269.97
  16390.438  -1.49286   10.6405   0.5601038   355795.44
  16396.848  -1.49458   10.6397  0.559128   359075.69
  16403.262  -1.49641   10.6394  0.558203   363081.66
  16409.684  -1.4985   10.6282   0.5573616   366652.41
  16416.107  -1.50023   10.628  0.556546   370232.87
  16422.895  -1.50179   10.6347   0.5555003   374086.09
  16429.332  -1.50354   10.6359   0.5544808   377524.09
  16436.129  -1.5056    10.62847  0.553481   381000.81
  16443.291  -1.50762   10.6261  0.552563   384838.28
  16450.104  -1.50935   10.6334  0.551806    388685.5
  16457.277  -1.51094   10.6446  0.551113   392311.47
  16464.100  -1.51255   10.6499  0.550339   396153.19
  16471.289   -1.514392    10.65767  0.549451   399852.66
  16478.842  -1.51622   10.6582  0.548491   403656.84
  16486.043  -1.51796   10.6628  0.547505   406717.81
  16493.611  -1.51991   10.6652  0.546521    410021.5
  16500.826  -1.52186   10.6679  0.545654   413410.97
  16508.406  -1.52401   10.6648  0.544786   416184.16
  16516.357  -1.52637   10.6589  0.543836   419263.12
  16523.953  -1.52843    10.65997  0.542936   423366.81
  16531.920  -1.53045   10.6648  0.542074   426882.25
  16539.531  -1.53229   10.6622  0.541189   431106.44
  16547.875  -1.53434   10.6638  0.540184   433670.41
  16555.863  -1.5363   10.6639  0.539237   436233.09
  16563.859  -1.53837   10.6673   0.5384022   439998.53
  16572.230  -1.54058   10.6684  0.537436   443666.69
  16580.607  -1.54283   10.6663  0.536488   446734.62
  16588.992  -1.54508   10.6616  0.535516   449885.31
  16597.387  -1.54737   10.6639  0.534607   452922.75
  16605.793  -1.54956    10.66547  0.533712   455594.91
  16614.570  -1.55191   10.669  0.532778   458797.84
  16622.992  -1.5541   10.671  0.531897    461222.5
  16631.789  -1.5564   10.6684  0.530879   464021.94
  16640.963  -1.5588   10.6677   0.5298705   467215.09
  16649.779  -1.5612   10.6669  0.528892      470198
  16658.604  -1.56355   10.6657  0.527905   472305.66
  16667.809  -1.56588   10.6691  0.526913   474910.06
  16677.021  -1.56824   10.6662   0.5259088   477534.22
  16686.246  -1.57058   10.678    0.524945   480871.12
  16695.480  -1.57298   10.6759  0.523971   482142.78
  16705.096  -1.5755    10.68185  0.522899   484811.19
  16714.723  -1.57824   10.6723  0.521806   485457.34
  16723.990  -1.5805   10.6799  0.520812   488983.22
  16733.639  -1.58307   10.6808  0.519756   490656.87
  16743.670  -1.58572   10.6801  0.518693   491063.28
  16753.342   -1.588158   10.6806   0.5176371   492612.41
  16763.396  -1.59074    10.68047  0.516538   494931.28
  16773.094  -1.59329   10.6799   0.5154452   495714.94
  16783.174  -1.59606    10.68207  0.514352   497090.31
  16793.641  -1.59879   10.6838  0.513205   498386.44
  16803.746  -1.60143   10.6861  0.512085   499686.31
  16813.863  -1.60385   10.712  0.510933   497125.94
  16824.369  -1.60677   10.6883  0.509898   502063.31
  16834.887  -1.60942   10.6858  0.508694   502026.44
  16845.420  -1.61202   10.6842  0.507532   502957.31
  16855.965  -1.61459   10.6856  0.506387   503716.94
  16866.525  -1.61722   10.6876  0.505246   505529.28
  16877.477  -1.61996   10.6839   0.5040125   505676.41
  16888.441  -1.62264   10.6836  0.502826   506418.28
  16899.041  -1.62528    10.68274  0.501659   506692.87
  16910.416  -1.62799   10.6857  0.500418   507304.22
  16921.424   -1.630678   10.6905  0.499211   507532.34
  16932.447   -1.633454    10.68564  0.498025   507631.19
  16943.865  -1.63627   10.6858  0.496776   507439.78
  16955.301  -1.63904   10.6892  0.495593   507415.12
  16966.371  -1.64166   10.688  0.494371   507942.22
  16977.836  -1.64442   10.6909  0.493144   506373.06
  16989.699  -1.6472   10.699  0.491924   506107.66
  17001.197  -1.64991   10.7027   0.4907294      505442

File: SrSO4_rt_02.xdi
# XDI/1.0 EXAFS Data Collector 1.1 AD.RGN
# Column.1: energy eV
# Column.2: mutrans
# Column.3: mufluor
# Column.4: murefer
# Column.5: i0
# Beamline.name: SSRL 4-3
# Detector.I0: N2 15cm
# Detector.I1: N2+Ar 30cm
# Detector.If: Ar   (Lytle detector, using Rb Filter)
# Detector.I2: Ar
# Element.edge: K
# Element.symbol: Sr
# Mono.d_spacing: 1.920128
# Mono.name: Si(220)
# Mono.notes: (?) unfocussed, detuned 50%, clockwise at E=17000eV
# Sample.formula: SrSO4
# Sample.name: strontium sulfate
# Sample.prep: powder
# Sample.reference: SrCO3
# Sample.temperature: room temperature
# Scan.start_time: 1995-06-14 22:11:02
# ///
#    Note: mono d_spacing is nominal!
#-------------
#   energy   mutrans      mufluor    murefer      i0
  15699.933  -1.67757  0.767658  0.55753   139689.59
  15719.844  -1.68203  0.750754  0.555344   138167.59
  15740.136  -1.6866   0.7333416  0.55307   136585.59
  15760.152  -1.69103  0.715476  0.550886   133312.59
  15779.891  -1.69528  0.697097  0.548834   133840.59
  15800.011  -1.69966  0.677341  0.546646   132321.59
  15819.854  -1.70401  0.660319  0.544528    130786.6
  15840.076  -1.70859  0.641584  0.542318    129379.6
  15860.021  -1.71286  0.627049  0.540128    127734.6
  15880.018  -1.71747  0.611508  0.537851    126359.6
  15900.063   -1.721788  0.596418  0.535745    124905.6
  15920.164  -1.72609  0.583097  0.533553    123363.6
  15939.978    -1.73046  0.569061  0.531384    121856.6
  15959.844  -1.73467  0.558568  0.529192    120255.6
  15980.097  -1.73908  0.55171  0.526977    118857.6
  16000.064  -1.7433     0.54598  0.524797    117346.6
  16020.082  -1.74756  0.543837  0.522605    115725.6
  16040.152  -1.75146   0.5478414   0.5204434    114348.6
  16059.933  -1.75524  0.56043  0.518363    112916.6
  16080.104  -1.75862  0.590667  0.516181    111358.6
  16099.984  -1.76073  0.666744  0.514398    110112.6
  16119.917  -1.7568  0.948073  0.513819    108607.6
  16122.670  -1.75488   1.02977  0.514144    108406.6
  16125.079  -1.75217   1.13905  0.514569    108254.6
  16127.490  -1.74762   1.30313  0.515713    108110.6
  16129.901    -1.74025   1.56643  0.517988    107911.6
  16132.657   -1.722513   2.17608   0.5258264    107738.6
  16135.069   -1.685294   3.39429  0.541819    107500.6
  16137.483  -1.60381   5.89076  0.564244    107333.6
  16139.897   -1.466418   9.68178  0.591838    107091.6
  16142.657   -1.312128   12.9783  0.620696    106977.6
  16145.073  -1.28116   13.0105  0.627929    106713.6
  16147.490  -1.33631   12.8097  0.617217    106644.6
  16149.907  -1.39706   11.2917  0.599974    106453.6
  16152.670   -1.428288   10.5279  0.584341    106182.6
  16155.090  -1.43614    10.34591  0.577457    211947.2
  16156.473   -1.439083   10.2828  0.575706   211717.08
  16157.854  -1.44167   10.2231  0.574788    211447.7
  16159.237  -1.44314   10.2016   0.5741352   212006.06
  16160.968  -1.44255   10.2342  0.573729   212140.19
  16162.695  -1.43962   10.3256  0.574064   212106.05
  16164.426  -1.43488   10.4634  0.575355   212623.66
  16166.157  -1.42899   10.6377   0.5770508   212543.02
  16168.234  -1.42294    10.79977  0.578864   212288.12
  16170.311  -1.42229   10.8054  0.580847   212967.98
  16172.388  -1.42414   10.7827  0.583577   213894.59
  16174.466  -1.42267   10.8509  0.586677   215281.94
  16176.545  -1.41827     10.9781  0.589056   216261.05
  16178.971  -1.41123   11.1772  0.590772   216613.89
  16181.399   -1.404911    11.35174  0.590822   217768.48
  16183.826  -1.40338   11.3978  0.589619   218799.83
  16186.254  -1.40838   11.2846  0.587991   219769.92
  16189.030  -1.41835   11.0545  0.585745   221132.75
  16191.809  -1.42551   10.8971  0.582922   222239.34
  16194.587  -1.42851   10.8362     0.58004   223588.67
  16197.366  -1.43115   10.7882   0.5778241   225085.75
  16200.493  -1.43517   10.7061  0.575906   226447.59
  16203.274  -1.43766   10.6672  0.574575   228048.17
  16206.405  -1.43943   10.6475  0.574063   229824.48
  16209.884  -1.44206   10.605  0.574794   231409.56
  16213.016  -1.44437   10.5701  0.575846   233120.39
  16216.499  -1.4453   10.5754  0.576829   234834.95
  16219.981  -1.44433   10.6287  0.577047   236490.27
  16223.468  -1.44182    10.72799  0.576884   238503.33
  16226.954  -1.43772   10.8723  0.5766   240094.14
  16230.792  -1.43364   11.0292  0.576344    241230.7
  16234.281   -1.433184   11.0649   0.5763087   242334.02
  16238.122  -1.43694   10.9562   0.5759618   244601.06
  16242.313  -1.44435   10.7417  0.574944   247499.87
  16246.159  -1.45068   10.5972  0.573532   250943.42
  16250.354  -1.45506   10.5537  0.571973   254611.72
  16254.553  -1.45665    10.57727  0.570642   257781.77
  16258.753  -1.45675   10.6203  0.56966   260504.56
  16262.957  -1.45778   10.6357  0.569096   262057.11
  16267.162  -1.45895   10.6189  0.568598   264411.41
  16271.719  -1.46015   10.5949  0.568156   266929.44
  16276.280  -1.46116   10.5915  0.567786   270122.22
  16280.844  -1.46171    10.62596  0.567642   273340.75
  16285.760  -1.46184   10.6742  0.567889   276849.03
  16290.328   -1.462061   10.6966  0.567498   279739.06
  16295.252  -1.46315   10.7102  0.566606   282955.84
  16300.179  -1.46456   10.7055  0.565931   285590.34
  16305.459  -1.46559   10.7196  0.565831   288668.62
  16310.392  -1.46737   10.7134  0.565555   291926.66
  16315.680  -1.47052   10.6682  0.565014   294987.41
  16320.972  -1.47274   10.647  0.564152   298209.94
  16326.268  -1.47413   10.6528   0.5631317   301476.19
  16331.564  -1.47467   10.6742  0.562143   304858.22
  16337.221   -1.475931   10.6867   0.5612099   307815.97
  16342.881  -1.47789   10.6779  0.560255   311018.47
  16348.544  -1.4797   10.676  0.559624   314417.72
  16354.211  -1.48149    10.67617  0.559256   317978.72
  16360.238  -1.48315   10.6796  0.559016   321181.47
  16365.914  -1.48455   10.6834  0.558722   324820.97
  16371.948  -1.48609   10.6905  0.558159   328384.22
  16377.989  -1.48774   10.6905  0.557342   331815.22
  16384.389  -1.48971   10.689   0.5563362   334678.97
  16390.438  -1.49144   10.6898  0.555393   337998.44
  16396.848   -1.493243   10.6922  0.554512   341649.69
  16403.262  -1.49517   10.6915  0.553789   345044.66
  16409.684  -1.49734   10.681    0.553123   348316.41
  16416.107  -1.49919   10.6823  0.552416   352160.87
  16422.895  -1.50095   10.6892  0.551578   355430.09
  16429.332  -1.5027   10.694  0.550662   359445.09
  16436.129  -1.50484   10.6881  0.549769   363060.81
  16443.291  -1.50696   10.6835  0.548921   366205.28
  16450.104  -1.50878   10.6906  0.548272    370275.5
  16457.277   -1.510518   10.7  0.547644   373700.47
  16464.100  -1.51221   10.7077  0.547003   376827.19
  16471.289  -1.51403   10.7099  0.546163   380373.66
  16478.842  -1.51594   10.7154  0.545272   383776.84
  16486.043  -1.51774   10.7202  0.54439   387303.81
  16493.611  -1.51976   10.7214  0.543402    390777.5
  16500.826  -1.52176   10.721  0.542537   395272.97
  16508.406  -1.5239   10.7161  0.541619   397314.16
  16516.357  -1.52626   10.7087  0.540729   400953.12
  16523.953  -1.52832   10.7053  0.539847   404361.81
  16531.920  -1.53035   10.7092  0.538999   407942.25
  16539.531  -1.53218   10.7192  0.538183   411332.44
  16547.875  -1.53431   10.7221  0.537231   413821.41
  16555.863  -1.53632   10.7274  0.536339   416046.09
  16563.859  -1.53837   10.7308  0.535446   420331.53
  16572.230  -1.54069    10.73168  0.534562   423305.69
  16580.607  -1.54307   10.733  0.53359   426433.62
  16588.992  -1.54547   10.7285  0.53266   429092.31
  16597.387  -1.54772   10.7325  0.531699   432824.75
  16605.793  -1.54992   10.7286  0.530782   435263.91
  16614.570  -1.55222   10.7342  0.529875   438761.84
  16622.992  -1.55444   10.7335  0.528988    440079.5
  16631.789  -1.55674   10.7326  0.527994   443433.94
  16640.963  -1.55923   10.7311  0.526958   446488.09
  16649.779  -1.56156   10.7318  0.525979      449210
  16658.604   -1.563886   10.7316  0.525043   451942.66
  16667.809  -1.56634   10.7342  0.524114   453531.06
  16677.021  -1.56871   10.7347  0.523175   455919.22
  16686.246  -1.57106   10.7312  0.52216   457659.12
  16695.480   -1.573468   10.7343     0.52121   459841.78
  16705.096  -1.57587   10.7348  0.520162   461710.19
  16714.723  -1.57855   10.727  0.519124   463084.34
  16723.990   -1.580763   10.7368  0.518148   466011.22
  16733.639  -1.58333   10.7376  0.517147   468400.87
  16743.670  -1.58593   10.7379   0.5161192   469641.28
  16753.342  -1.58843   10.7377  0.515093   471907.41
  16763.396  -1.59102   10.7386  0.51405   472871.28
  16773.094  -1.59351   10.7402  0.513034   474021.94
  16783.174  -1.59609   10.7373  0.511905   475740.31
  16793.641  -1.59878   10.7362  0.510813   476758.44
  16803.746  -1.60142   10.737  0.509799   477364.31
  16813.863  -1.60378   10.7637  0.508847   476549.94
  16824.369  -1.6066   10.7373  0.507657   480793.31
  16834.887  -1.60927   10.7337     0.50657   482366.44
  16845.420  -1.61194   10.734  0.505463   482079.31
  16855.965  -1.61451    10.73347  0.504387   482791.94
  16866.525  -1.61721   10.7307  0.503284   483036.28
  16877.477  -1.61993   10.7276  0.502162   483753.41
  16888.441  -1.62268   10.7328   0.5010381   484043.28
  16899.041  -1.62536   10.725  0.499944   483370.87
  16910.416  -1.62815   10.7271   0.4987888   483595.22
  16921.424  -1.6307   10.7285  0.497676   483924.34
  16932.447  -1.63342   10.7262  0.496525   484869.19
  16943.865  -1.63623   10.7235  0.495348   484237.78
  16955.301  -1.63897   10.7244  0.494195   485403.12
  16966.371  -1.64172   10.7188   0.4930299   484026.22
  16977.836  -1.64443   10.723  0.491894   484021.06
  16989.699  -1.64724   10.7258  0.49072   483519.66
  17001.197  -1.65   10.7225  0.489556      483384