Folder: XASDataLibrary/data/Sr (part 2)

File: Sr_slawsonite_rt_01.xdi
# XDI/1.0  SSRL EXAFS Data Collector 1.1 AD.RGN
# Column.1: energy eV
# Column.2: mutrans
# Column.3: i0
# Beamline.name: SSRL 4-3 (?)
# Element.edge: K
# Element.symbol: Sr
# Mono.d_spacing: 1.92009
# Mono.name: Si(220)
# Mono.notes: (?) unfocussed, detuned 75%, clockwise at E=16300eV
# Sample.formula: SrAl2(SiO4)2
# Sample.name: slawsonite
# Sample.prep: powder mixed with B2O3
# Sample.reference: none
# Sample.temperature: room temperature
# Scan.start_time: 1997-03-18 19:29:57
# ///
#    Note: mono d_spacing is nominal!
#--------------------------------------------
# energy     mutrans      i0
  15700.043  0.167002   70449.602
  15719.954  0.165966   69905.602
  15739.919  0.17652   68498.602
  15759.935  0.163862   68765.602
  15780.002  0.162854   68112.602
  15799.958   0.1648769   67790.602
  15819.965  0.161789   66925.602
  15840.023  0.164961   66647.602
  15859.968   0.1644616   65989.602
  15879.964  0.164698   65421.602
  15900.011  0.163567   64684.602
  15919.941  0.164034   64184.602
  15939.925  0.165154   63685.602
  15959.959  0.164506   63006.602
  15980.045  0.163168   62246.602
  16000.012  0.162764   61649.602
  16020.030   0.1602267   60846.602
  16039.929  0.160963   60159.602
  16060.049  0.162069   59620.602
  16080.051  0.164635   58863.602
  16082.448  0.165925   58828.602
  16084.846  0.165736   58621.602
  16087.415  0.167828   58590.602
  16089.813  0.170082   58478.602
  16092.214  0.174163   58297.602
  16094.785  0.181014   58228.602
  16097.187    0.195563   58083.602
  16099.588  0.229095   57965.602
  16102.162  0.29817   57722.602
  16104.565  0.389612   57689.602
  16106.970  0.486999   57614.602
  16109.547  0.545719   57412.602
  16111.952  0.538938   57276.602
  16114.359  0.506423   57239.602
  16116.767  0.47599   57120.602
  16119.345  0.459937   56958.602
  16121.754  0.447089   56761.602
  16124.163  0.437648   56728.602
  16126.746  0.427568   56524.602
  16129.157   0.4225348   56257.602
  16131.568  0.424681   56147.602
  16133.980  0.430372   55860.602
  16136.568  0.437441   55756.602
  16138.981  0.446908   55883.602
  16141.396   0.4559392   55781.602
  16143.812  0.463945   55563.602
  16146.400  0.468223   55370.602
  16148.817  0.468189   55226.602
  16151.062  0.465569   110602.19
  16153.481  0.459394   110171.09
  16155.727  0.453412   109736.91
  16158.146   0.4517454   109559.62
  16160.740  0.448117   109080.24
  16163.334  0.444901   108628.77
  16166.102  0.442585    108402.2
  16168.871  0.44002   108299.54
  16171.642  0.435525   108123.79
  16174.586  0.430014   107955.94
  16177.705   0.4275132   108190.99
  16180.825  0.42948   108529.95
  16183.946  0.434448   109443.82
  16187.242  0.439063   110453.59
  16190.539  0.442613   111303.27
  16194.011  0.445107   111743.85
  16197.485  0.444681   111866.34
  16201.134  0.443307   112201.73
  16204.785  0.440636   112396.03
  16208.612  0.437072   112825.23
  16212.439  0.433528   113395.34
  16216.271  0.429766   113781.36
  16220.276  0.427153   114370.28
  16224.459  0.424862   114885.11
  16228.644  0.424389   115210.84
  16232.832  0.424883   115950.48
  16237.194  0.425704   116666.02
  16241.561  0.425437   117294.47
  16246.104  0.424857   118065.82
  16250.650  0.424698   118730.08
  16255.199  0.423459   119480.24
  16259.925  0.423632   120303.31
  16264.830  0.423994   121042.29
  16269.737   0.4244968   121982.17
  16274.646  0.423043   122573.96
  16279.736  0.420969   123440.66
  16284.828  0.420334   124375.25
  16290.099  0.419436   125293.76
  16295.373  0.417828   126093.16
  16300.827  0.415867   127208.48
  16306.286   0.4142314    128213.7
  16311.748  0.41266   129097.82
  16317.388  0.412095   130166.85
  16323.212  0.411846    131192.8
  16328.861  0.412504   132209.64
  16334.867  0.412047   133071.37
  16340.703  0.411364   134291.03
  16346.719  0.410296   135468.59
  16352.918  0.408877   136267.06
  16359.119  0.40682   137346.42
  16365.326  0.404971    138468.7
  16371.717  0.403155   139512.87
  16378.111  0.402081   140629.97
  16384.689   0.4015195   141683.95
  16391.271  0.400695   142919.86
  16398.039  0.399972   143842.66
  16404.813  0.398704   145142.36
  16411.590  0.397631   146393.98
  16418.553   0.3963339    147426.5
  16425.521  0.394909   148528.92
  16432.676  0.39372   149707.25
  16439.834   0.3922423   150834.48
  16447.180  0.391205   151996.62
  16454.354  0.390382   153148.67
  16461.891  0.389086   154225.62
  16469.438  0.3879   155086.48
  16476.988  0.386641   156354.25
  16484.549  0.385312   157486.92
  16492.295  0.38382   158550.48
  16500.229  0.382344   159512.97
  16508.172  0.380841   160649.36
  16516.121  0.37939   161845.64
  16524.080  0.37803   162738.84
  16532.227  0.376816   163926.94
  16540.563  0.375565   164700.95
  16548.906  0.374293   165974.86
  16557.262  0.37301   167289.69
  16565.807  0.371071   168236.41
  16574.357  0.369695   169116.03
  16582.922  0.367813   170500.56
  16591.674  0.366344   171129.02
  16600.438  0.364825   172138.36
  16609.393  0.363274   173119.61
  16618.357  0.361649   174131.77
  16627.332  0.359926   175192.83
  16636.502  0.358358    176402.8
  16645.682  0.356698   177250.66
  16655.053  0.355282   177600.44
  16664.254  0.353465   178451.12
  16673.832  0.352192   178776.72
  16683.420  0.350492    179588.2
  16693.023  0.348429   180646.61
  16702.635  0.346686   181235.92
  16712.445  0.345176   181924.12
  16722.264  0.343039   182671.25
  16732.281  0.341504   183005.27
  16742.313  0.339421    183623.2
  16752.355  0.337658   184120.03
  16762.596  0.335854   184575.77
  16772.852  0.33429   184552.41
  16783.117   0.3326482   184463.97
  16793.584  0.330837   185521.42
  16804.063   0.3288348   186035.78
  16814.744  0.327056   186382.05
  16825.438   0.3252129   186941.22
  16836.146  0.32348    187269.3
  16847.059  0.321576   187035.28
  16857.982  0.319395   187663.17
  16868.922  0.317688   187161.97
  16880.064  0.315821   187724.66
  16891.223  0.313596   187820.27
  16902.396  0.312135   187747.78
  16913.773  0.310344   187584.19
  16925.166  0.308368   187731.52
  16936.576  0.306414   187674.73
  16948.191  0.304467   187546.87
  16959.822  0.302865   187122.91
  16971.471  0.301017   187638.86
  16983.326  0.299115    186953.7
  16995.197  0.296939   186547.45
  17001.332  0.296092    186499.8

File: Sr_slawsonite_rt_02.xdi
# XDI/1.0  SSRL EXAFS Data Collector 1.1 AD.RGN
# Column.1: energy eV
# Column.2: mutrans
# Column.3: i0
# Beamline.name: SSRL 4-3 (?)
# Element.edge: K
# Element.symbol: Sr
# Mono.d_spacing: 1.92009
# Mono.name: Si(220)
# Mono.notes: (?) unfocussed, detuned 75%, clockwise at E=16300eV
# Sample.formula: SrAl2(SiO4)2
# Sample.name: slawsonite
# Sample.prep: powder mixed with B2O3
# Sample.reference: none
# Sample.temperature: room temperature
# Scan.start_time: 1997-03-18 19:29:57
# ///
#    Note: mono d_spacing is nominal!
#--------------------------------------------
# energy     mutrans      i0
  15700.043   0.2058071   66648.602
  15719.954  0.200385   65585.602
  15739.919  0.205218   63872.602
  15759.935  0.19561   64335.602
  15780.002    0.194245   63668.602
  15799.958  0.193758   63058.602
  15819.965  0.191736   62394.602
  15840.023   0.1861454   61427.602
  15859.968  0.190377   61206.602
  15879.964  0.183182   60037.602
  15900.011  0.186905   59669.602
  15919.941  0.185343   59086.602
  15939.925  0.181697   58221.602
  15959.959  0.180583   57556.602
  15980.045  0.178355   56755.602
  16000.012  0.175384   55986.602
  16020.030  0.174671   55334.602
  16039.929  0.173636   54676.602
  16060.049  0.172486   53981.602
  16080.051  0.17348   53145.602
  16082.448  0.175039   53160.602
  16084.846  0.175462   52993.602
  16087.415   0.1768816   52863.602
  16089.813  0.179835   52762.602
  16092.214  0.182474   52671.602
  16094.785  0.189176   52618.602
  16097.187  0.200967   52467.602
  16099.588  0.233242   52448.602
  16102.162  0.301274   52237.602
  16104.565  0.391254   52179.602
  16106.970   0.4899868   52106.602
  16109.547  0.554671   52032.602
  16111.952  0.550958   51971.602
  16114.359  0.517385   51864.602
  16116.767  0.485672   51737.602
  16119.345  0.467943   51631.602
  16121.754  0.455836   51516.602
  16124.163  0.445138   51358.602
  16126.746  0.435631   51359.602
  16129.157  0.430262   51144.602
  16131.568  0.431384   51069.602
  16133.980  0.436596   50737.602
  16136.568   0.4439804   50714.602
  16138.981  0.452991   50709.602
  16141.396  0.462148   50777.602
  16143.812  0.470618   50655.602
  16146.400  0.476363   50533.602
  16148.817  0.475864   50474.602
  16151.062  0.470952   100749.19
  16153.481  0.465638   100465.09
  16155.727  0.460862   100302.91
  16158.146  0.456476   100025.63
  16160.740  0.453352   99695.242
  16163.334  0.450741   99411.773
  16166.102  0.448176   99174.203
  16168.871  0.444149   99021.539
  16171.642  0.439746   98987.789
  16174.586  0.434427   98961.938
  16177.705  0.43217   99322.992
  16180.825  0.433529   99835.953
  16183.946  0.437425   100573.82
  16187.242  0.442904   101569.59
  16190.539  0.446842   102296.27
  16194.011  0.449135   102692.85
  16197.485  0.448533   102886.34
  16201.134  0.447104   103289.73
  16204.785  0.444382   103679.03
  16208.612  0.440324   104128.23
  16212.439  0.436891   104578.34
  16216.271  0.433146   105040.36
  16220.276  0.429807   105569.28
  16224.459  0.428302   106228.11
  16228.644  0.427735   106734.84
  16232.832  0.427927   107432.48
  16237.194  0.428188   107981.02
  16241.561  0.428004   108734.47
  16246.104  0.42747   109327.82
  16250.650  0.427123   110117.08
  16255.199  0.426246   110914.24
  16259.925  0.425675   111647.31
  16264.830  0.426245   112400.29
  16269.737  0.425944   113248.17
  16274.646  0.424929   114013.96
  16279.736  0.423002   114880.66
  16284.828  0.421788   115722.25
  16290.099  0.421193   116622.76
  16295.373  0.419464   117670.16
  16300.827  0.417562   118416.48
  16306.286  0.416018    119224.7
  16311.748  0.414302   120258.82
  16317.388  0.413243   121398.85
  16323.212  0.413279   122166.79
  16328.861   0.4135999   123291.63
  16334.867  0.413547   124299.38
  16340.703  0.412768   125317.03
  16346.719  0.411187   126430.59
  16352.918  0.409924   127347.05
  16359.119  0.407918   128359.42
  16365.326  0.405601    129413.7
  16371.717  0.403853   130612.88
  16378.111  0.403013   131652.97
  16384.689  0.401878   132633.95
  16391.271  0.401089   133813.86
  16398.039  0.400166   134928.66
  16404.813   0.3993699   136201.36
  16411.590  0.397908   137275.98
  16418.553  0.396598    138421.5
  16425.521  0.395652   139444.92
  16432.676  0.394027   140449.25
  16439.834  0.39274   141629.48
  16447.180  0.391625   142793.62
  16454.354  0.390726   144022.67
  16461.891  0.389161   145121.62
  16469.438  0.388214   146349.48
  16476.988  0.386762   147550.25
  16484.549   0.3852689   148493.92
  16492.295  0.383664   149323.48
  16500.229  0.382145   150443.97
  16508.172  0.38065   151476.36
  16516.121  0.379189   152666.64
  16524.080  0.378046   153876.84
  16532.227  0.376943   154920.94
  16540.563  0.375551   155826.95
  16548.906  0.374106   157013.86
  16557.262  0.372739   158005.69
  16565.807  0.371088   158898.41
  16574.357  0.369266   159918.03
  16582.922  0.367818   160773.56
  16591.674  0.366212   161478.02
  16600.438   0.3647861   162420.36
  16609.393  0.363056   163266.61
  16618.357  0.361347   164211.77
  16627.332  0.360226   165199.83
  16636.502  0.358617    166082.8
  16645.682  0.356856   166956.66
  16655.053  0.35525   167901.44
  16664.254  0.353444   168562.12
  16673.832   0.3517565   169377.72
  16683.420  0.350153    170387.2
  16693.023   0.3483963   171465.61
  16702.635   0.3466642   171813.92
  16712.445  0.345425   172317.12
  16722.264   0.3433646   172974.25
  16732.281  0.341768   173622.27
  16742.313  0.33981    174203.2
  16752.355  0.339598   175165.03
  16762.596   0.3374321   175535.77
  16772.852  0.334555   175802.41
  16783.117  0.333083   175961.97
  16793.584   0.3308056   176972.42
  16804.063  0.328915   177695.78
  16814.744  0.326976   177507.05
  16825.438  0.324873   178119.22
  16836.146  0.323659    178194.3
  16847.059  0.321835   178146.28
  16857.982  0.319989   178450.17
  16868.922  0.317886   178605.97
  16880.064   0.3160382   178613.66
  16891.223  0.314239   179271.27
  16902.396  0.312371   179042.78
  16913.773  0.310497   178776.19
  16925.166  0.308511   179501.52
  16936.576  0.305742   179447.73
  16948.191  0.304335   179075.87
  16959.822  0.302199   178817.91
  16971.471  0.300431   179239.86
  16983.326  0.298175    179015.7
  16995.197  0.296278   178898.45
  17001.332  0.295486    178881.8

File: SrCO3_12K_01.xdi
# XDI/1.0 EXAFS Data Collector 1.1 AD.RGN
# Column.1: energy eV
# Column.2: mutrans
# Column.3: i0
# Beamline.name: SSRL 4-3 (?)
# Detector.I0: N2 15cm
# Detector.I1: Ar 30cm
# Element.edge: K
# Element.symbol: Sr
# Mono.d_spacing: 1.92009
# Mono.name: Si(220)
# Mono.notes: (?) unfocussed, detuned 50%, clockwise at E=16800eV
# Sample.formula: SrCO3
# Sample.name: strontianite
# Sample.prep: powder mixed with B2O3 (1:10)
# Sample.reference: none
# Sample.temperature: 12K
# Scan.start_time: 1997-03-17 12:43:45
# ///
#    Note: mono d_spacing is nominal!
#-------------
#   energy   mutrans      i0
  15700.043 -0.147355   37319.199
  15719.954 -0.151136   36836.199
  15739.919 -0.153605   35668.199
  15759.935 -0.15805   36122.199
  15780.002 -0.161162   35608.199
  15799.958 -0.164618   35268.199
  15819.965  -0.1675485   34780.199
  15840.023  -0.1713578   34486.199
  15859.968  -0.1737261   33985.199
  15879.964  -0.1765138   33535.199
  15900.011 -0.17996   33149.199
  15919.941 -0.182438   32737.199
  15939.925 -0.185632   32356.199
  15959.959 -0.188555   31951.199
  15980.045  -0.1911594   31388.199
  16000.012 -0.193405   31058.199
  16020.030 -0.196213   30666.199
  16039.929 -0.197612   30221.199
  16060.049 -0.199385   29816.199
  16080.051 -0.195806   29363.199
  16099.931 -0.0539521   28899.199
  16120.035  0.207462   28507.199
  16122.443  0.193757   28420.199
  16125.024   0.1871395   28329.199
  16127.435   0.1853972   28252.199
  16130.019  0.192551   28136.199
  16132.431  0.205021   27917.199
  16135.016  0.219371   27861.199
  16137.429  0.233662   27830.199
  16140.016   0.2528461   27778.199
  16142.431  0.271103   27739.199
  16145.020  0.283698   27655.199
  16147.436  0.287813   27549.199
  16150.024  0.284165   27458.199
  16152.443  0.276198   27364.199
  16155.034  0.263375   27260.199
  16156.418   0.2559556   27207.176
  16157.800  0.247864   27126.104
  16159.356  0.238293   27053.982
  16160.913  0.230623   26977.814
  16162.642  0.223668   26926.598
  16164.372  0.217491   26858.332
  16166.275  0.210923    26799.02
  16168.179  0.206114   26809.658
  16170.084  0.202569   26787.248
  16172.160  0.200813   26808.791
  16174.412  0.20307   26798.285
  16176.665  0.208339    26838.73
  16178.917  0.213086   26945.129
  16181.345   0.2189205   27031.477
  16183.772  0.221839   27254.779
  16186.374  0.223763   27528.031
  16188.977  0.224431   27787.236
  16191.755  0.225236   27995.393
  16194.532  0.226126   28168.502
  16197.485  0.226654   28262.563
  16200.438  0.22818   28422.574
  16203.394  0.228582   28554.539
  16206.524  0.227894   28695.453
  16209.829  0.223438   28826.322
  16212.961  0.219003   29099.141
  16216.444  0.210844   29302.912
  16219.927  0.20278   29430.635
  16223.413  0.197183   29655.311
  16226.900  0.194194   29860.936
  16230.563  0.193002   30030.516
  16234.401  0.193434   30234.045
  16238.242  0.194704   30510.527
  16242.084  0.196173   30755.961
  16246.104  0.198655   30983.346
  16250.300  0.201999   31228.684
  16254.323  0.204663   31497.973
  16258.698  0.202297   31714.215
  16262.902  0.197412   32019.408
  16267.282  0.194124   32265.553
  16271.841  0.195166   32554.648
  16276.400  0.196409   32872.695
  16280.965  0.197704   33179.695
  16285.705  0.196317   33397.648
  16290.450  0.19237   33738.551
  16295.373  0.187514    34052.41
  16300.300   0.1848679   34390.215
  16305.404  0.180781   34627.977
  16310.514  0.178426   35034.688
  16315.624  0.17705   35310.348
  16320.918  0.177851   35633.965
  16326.212  0.18022   35936.531
  16331.687  0.184698   36277.047
  16337.165  0.184228    36572.52
  16342.827  0.181816   36921.941
  16348.490  0.177698   37239.313
  16354.333  0.174942   37611.641
  16360.007  0.17093   37946.918
  16366.036   0.1679236   38161.145
  16372.071  0.167388   38525.328
  16378.111  0.16836   38946.461
  16384.156  0.168925   39257.543
  16390.383  0.165973   39571.578
  16396.791  0.163042   39966.566
  16403.207  0.159938   40248.508
  16409.627    0.158419   40680.398
  16416.230   0.1578638   40971.242
  16422.840  0.158259   41220.039
  16429.455    0.158875   41666.785
  16436.254   0.1575382   41988.484
  16443.236  0.155384   42348.137
  16450.049   0.1531189   42704.738
  16457.223  0.15019   42991.293
  16464.227  0.14855   43340.801
  16471.412  0.14673   43587.258
  16478.787  0.144745   43909.668
  16485.988   0.1430245   44263.027
  16493.557  0.142607   44607.344
  16500.949  0.142494   44909.609
  16508.533  0.140051   45116.824
  16516.301   0.1384234   45408.992
  16523.898  0.136851   45707.113
  16531.865  0.135994   46125.188
  16539.656  0.13361   46294.211
  16547.639  0.13283   46637.188
  16555.809  0.130145   46874.117
  16563.986  0.127903   47094.996
  16572.176  0.127125   47400.828
  16580.371  0.125169   47791.609
  16588.756  0.125714   48209.348
  16597.334  0.123428   48387.031
  16605.736  0.12069   48577.672
  16614.514  0.118225   48871.262
  16623.119  0.116042   49084.805
  16631.916   0.1149483   49300.301
  16640.725    0.113985   49522.746
  16649.723   0.1124488   49735.145
  16658.732  0.111464   50052.492
  16667.936  0.109654   49993.793
  16676.965  0.107134   50445.047
  16686.375  0.105454   50685.254
  16695.609  0.102966    50823.41
  16705.041  0.101282    50950.52
  16714.666  0.100962   51093.578
  16724.119 0.0991727   51281.594
  16733.768 0.0978977   51349.555
  16743.613 0.0962586   51649.473
  16753.285 0.0938999    51805.34
  16763.342 0.092602    51856.16
  16773.223 0.0910983    51883.93
  16783.305 0.0884685   51955.656
  16793.396 0.0876458   52188.328
  16803.689 0.0860707   52379.957
  16813.994 0.0840568   52322.535
  16824.313 0.0818181   52416.066
  16834.832  0.08097037   52641.547
  16845.363 0.0797071    52745.98
  16855.910 0.0785406   52832.367
  16866.658 0.0768957   52820.707
  16877.420 0.0750459   52852.996
  16888.385 0.0725233   52748.238
  16899.174 0.071372    52739.43
  16910.170 0.0697499   52689.574
  16921.367 0.0686767   52700.672
  16932.580 0.0672299   52627.719
  16943.809 0.0653922   52494.719
  16955.055 0.0636688   52493.672
  16966.504 0.0620296   52393.578
  16977.969 0.0609873   52352.434
  16989.643 0.0598364   52197.242
  17001.332 0.057938       52157

File: SrCO3_12K_02.xdi
# XDI/1.0 EXAFS Data Collector 1.1 AD.RGN
# Column.1: energy eV
# Column.2: mutrans
# Column.3: i0
# Beamline.name: SSRL 4-3 (?)
# Detector.I0: N2 15cm
# Detector.I1: Ar 30cm
# Element.edge: K
# Element.symbol: Sr
# Mono.d_spacing: 1.92009
# Mono.name: Si(220)
# Mono.notes: (?) unfocussed, detuned 50%, clockwise at E=16800eV
# Sample.formula: SrCO3
# Sample.name: strontianite
# Sample.prep: powder mixed with B2O3 (1:10)
# Sample.reference: none
# Sample.temperature: 12K
# Scan.start_time: 1997-03-17 12:43:45
# ///
#    Note: mono d_spacing is nominal!
#-------------
#   energy   mutrans      i0
  15700.043 -0.0404798   52989.199
  15719.954 -0.0460176   51876.199
  15739.919 -0.0422419   50270.199
  15759.935 -0.0450585   50489.199
  15780.002 -0.0460947   49625.199
  15799.958 -0.0494991   48734.199
  15819.965 -0.0485663   48126.199
  15840.023 -0.0499742   47381.199
  15859.968 -0.0495926   46673.199
  15879.964 -0.0511479   45809.199
  15900.011 -0.0524651   44982.199
  15919.941 -0.05501429   44204.199
  15939.925 -0.0575266   43571.199
  15959.959 -0.0591692   42720.199
  15980.045 -0.0598285   41927.199
  16000.012 -0.0614729   41229.199
  16020.030 -0.0630504   40442.199
  16039.929 -0.0643356   39789.199
  16060.049 -0.0644821   39005.199
  16080.051 -0.0606953   38098.199
  16099.931 0.0813072   37444.199
  16120.035  0.333773   36584.199
  16122.443   0.3211093   36500.199
  16125.024  0.314679   36414.199
  16127.435   0.3131925   36364.199
  16130.019  0.321104   36333.199
  16132.431  0.334626   35971.199
  16135.016  0.348094   35980.199
  16137.429  0.3616   35895.199
  16140.016  0.382008   36049.199
  16142.431  0.39882   35860.199
  16145.020  0.412185   35820.199
  16147.436  0.416318   35659.199
  16150.024  0.412656   35503.199
  16152.443  0.405617   35536.199
  16155.034  0.392796   35224.199
  16156.418   0.3854538   35178.176
  16157.800  0.376851   35101.105
  16159.356  0.368107   35128.984
  16160.913  0.361027   35052.816
  16162.642  0.354357   35001.598
  16164.372   0.3482762   34845.332
  16166.275  0.343267    35010.02
  16168.179  0.337505   34796.656
  16170.084  0.334537    34973.25
  16172.160  0.33418   34907.789
  16174.412  0.33669   35047.285
  16176.665  0.342169    35284.73
  16178.917  0.347439   35199.129
  16181.345  0.352851   35523.477
  16183.772  0.356971   35956.777
  16186.374  0.357691   36205.031
  16188.977  0.358655   36601.238
  16191.755  0.359428   36833.395
  16194.532  0.360278     37038.5
  16197.485  0.360783   37107.563
  16200.438  0.361827   37242.574
  16203.394  0.363222   37488.539
  16206.524  0.362387   37810.453
  16209.829  0.358753    37956.32
  16212.961  0.353403   38139.141
  16216.444   0.3463397    38405.91
  16219.927  0.339051   38534.637
  16223.413  0.333749   38930.309
  16226.900   0.3313929   39288.938
  16230.563  0.330888   39621.516
  16234.401  0.331267   39858.047
  16238.242  0.332728   40164.527
  16242.084  0.334611   40471.961
  16246.104   0.3366413   40926.348
  16250.300  0.340063   41109.684
  16254.323  0.342534   41438.973
  16258.698  0.34128   41787.215
  16262.902  0.335771   42018.406
  16267.282  0.333744   42715.551
  16271.841  0.334327   42870.648
  16276.400   0.3357472   43166.695
  16280.965  0.338047   43794.695
  16285.705  0.336696   44047.648
  16290.450  0.332927   44587.551
  16295.373  0.328083    44921.41
  16300.300  0.325052   45229.215
  16305.404  0.3228   45721.977
  16310.514  0.320523   46253.688
  16315.624  0.318831   46624.348
  16320.918  0.320679   47104.965
  16326.212   0.3236089   47475.531
  16331.687  0.327185   48052.047
  16337.165  0.327837    48395.52
  16342.827  0.325953   48856.941
  16348.490  0.322495   49353.313
  16354.333  0.319127   49782.641
  16360.007  0.315891   49996.918
  16366.036  0.313148   50506.145
  16372.071  0.312934   51253.328
  16378.111  0.313486   51380.461
  16384.156  0.314345   51935.543
  16390.383  0.312735   52237.578
  16396.791  0.309966   52841.566
  16403.207  0.308233   53076.508
  16409.627  0.305978   53718.398
  16416.230  0.305834   54025.242
  16422.840  0.306867   54480.039
  16429.455   0.3080212   55083.785
  16436.254  0.306811   55115.484
  16443.236  0.305642   55874.137
  16450.049  0.303563   56252.738
  16457.223  0.300986   56505.293
  16464.227  0.298954   56797.801
  16471.412  0.298311   57401.258
  16478.787  0.296961   57596.668
  16485.988  0.294888   58088.027
  16493.557  0.295208   58498.344
  16500.949  0.295112   58748.609
  16508.533  0.293779   59267.824
  16516.301  0.292406   59423.992
  16523.898  0.290798   60075.113
  16531.865  0.290315   60415.188
  16539.656   0.2888324   60762.211
  16547.639   0.2877852   61017.188
  16555.809  0.286135   61711.117
  16563.986  0.284028   61617.996
  16572.176  0.283068   61754.828
  16580.371  0.282478   62314.609
  16588.756  0.282381   62582.348
  16597.334  0.280729   62923.031
  16605.736  0.278661   63160.672
  16614.514  0.276411   63633.262
  16623.119   0.2750562   64048.805
  16631.916  0.274218   64271.301
  16640.725  0.274176   64657.746
  16649.723  0.273055   64414.145
  16658.732  0.272228   64658.492
  16667.936   0.2710343   64538.793
  16676.965  0.268607   65606.047
  16686.375  0.267122   65424.254
  16695.609  0.265913   65927.414
  16705.041  0.264881   65820.516
  16714.666  0.264715   65770.578
  16724.119  0.263397   66170.594
  16733.768  0.261843   66518.555
  16743.613  0.26015   66819.469
  16753.285  0.25801   66650.344
  16763.342  0.256948   67109.156
  16773.223   0.2563863    66836.93
  16783.305  0.254048   66963.656
  16793.396  0.253874   67206.328
  16803.689  0.251773   67444.953
  16813.994   0.2512351   67461.531
  16824.313  0.250124   67366.063
  16834.832  0.248661   67558.547
  16845.363  0.247645   67563.984
  16855.910  0.245489   67952.367
  16866.658  0.244305   67678.703
  16877.420  0.242292   67936.992
  16888.385  0.241   67987.234
  16899.174  0.239886    67778.43
  16910.170  0.238495   68146.578
  16921.367  0.237998   67743.672
  16932.580  0.237071   68224.719
  16943.809  0.236023   67727.719
  16955.055  0.234354   67825.672
  16966.504  0.231673   67981.578
  16977.969  0.233074    68172.43
  16989.643  0.229503   67843.242
  17001.332  0.228886       67587