Folder: XASDataLibrary/data/Sr (part 6)

File: SrSO4_10K_01.xdi
# XDI/1.0 EXAFS Data Collector 1.1 AD.RGN
# Column.1: energy eV
# Column.2: mutrans
# Column.3: murefer
# Column.4: i0
# Beamline.name: SSRL 4-3
# Detector.I0: N2 15cm
# Detector.I1: N2+Ar 30cm
# Detector.If: Ar   (Lytle detector, using Rb Filter)
# Detector.I2: Ar
# Element.edge: K
# Element.symbol: Sr
# Mono.d_spacing: 1.920128
# Mono.name: Si(220)
# Mono.notes: (?) unfocussed, detuned 50%, clockwise at E=17000eV
# Sample.formula: SrSO4
# Sample.name: strontium sulfate
# Sample.prep: powder
# Sample.reference: SrCO3
# Sample.temperature: 10K
# Scan.start_time: 1995-06-16 08:48:56
# ///
#    Note: mono d_spacing is nominal!
#-------------
#   energy   mutrans       murefer      i0
  15699.933 0.0835892  -1.13175    130706.7
  15719.844 0.0808274  -1.13468    129373.7
  15740.136 0.0779113  -1.13772    128152.7
  15760.152 0.0749595   -1.140654    125195.7
  15779.891 0.0721374   -1.143515    126104.7
  15800.011 0.0692438  -1.14638    124639.7
  15819.854 0.0663989   -1.149185    123430.7
  15840.076 0.0635217   -1.152077    122192.7
  15860.021 0.0607149  -1.15496    121009.7
  15880.018 0.0578853  -1.15771    119830.7
  15900.063 0.0550986  -1.1606    118554.7
  15920.164  0.05231671  -1.16347    117329.7
  15939.978  0.04962335  -1.16633    116096.7
  15959.844 0.0468981  -1.1692    114797.7
  15980.097 0.0441988  -1.17198    113573.7
  16000.064 0.0416108   -1.174858    112336.7
  16020.082 0.0390701  -1.17764    111165.7
  16040.152  0.03668977  -1.1805    109854.7
  16059.933 0.0345062  -1.1832    108630.7
  16080.104  0.03285945  -1.18604    107144.7
  16099.984 0.0326336   -1.188865    105880.7
  16119.917 0.0389096  -1.19156    104592.7
  16122.670 0.041198  -1.19193    104593.7
  16125.079 0.0444069  -1.19207    104511.7
  16127.490  0.04941723  -1.19232    104311.7
  16129.901 0.0577401  -1.19276    104010.7
  16132.657 0.078357  -1.19285    103886.7
  16135.069   0.1193148   -1.192759    103701.7
  16137.483  0.204908  -1.19232    103657.7
  16139.897  0.372016  -1.19255    103501.7
  16142.657  0.625736  -1.19288    103070.7
  16145.073  0.825717   -1.194035    102975.7
  16147.490   0.8056448  -1.1952    102840.7
  16149.907   0.6121736  -1.19504    102637.7
  16152.670  0.458871  -1.19495    102402.7
  16155.090  0.432339  -1.19508   204532.41
  16156.473  0.444439  -1.19529   204213.25
  16157.854   0.4626196  -1.19561   204131.78
  16159.237  0.47549   -1.195983   204008.02
  16160.968  0.477803  -1.19624   204120.94
  16162.695  0.471097  -1.19641   204060.56
  16164.426  0.465752  -1.19663   204437.87
  16166.157  0.46729  -1.19664   204628.87
  16168.234  0.482627   -1.196854   204779.58
  16170.311  0.51071  -1.19725   204085.97
  16172.388  0.545278  -1.19743   204962.05
  16174.466  0.582099  -1.19772   206441.83
  16176.545  0.609751  -1.19812    207816.3
  16178.971  0.606471  -1.19858   208687.45
  16181.399    0.559652  -1.19881   209353.31
  16183.826  0.513658   -1.198937   210412.86
  16186.254  0.502374  -1.19913   211389.09
  16189.030  0.530973  -1.19957   212167.03
  16191.809  0.56524  -1.20016   213292.66
  16194.587  0.557201  -1.2007   214448.98
  16197.366  0.514831  -1.20104      215938
  16200.493  0.474999  -1.20135    217356.7
  16203.274  0.462019  -1.20166   218774.09
  16206.405  0.455113  -1.20217   220195.19
  16209.884  0.451103  -1.20251   221810.97
  16213.016  0.468074  -1.20278   223378.45
  16216.499  0.506877  -1.20328   225041.62
  16219.981  0.535644  -1.20388   226862.48
  16223.468  0.54395  -1.20436   228597.05
  16226.954  0.544792  -1.20479    230514.3
  16230.792  0.552071  -1.20535   232184.23
  16234.281  0.540417  -1.20573   233486.87
  16238.122  0.50867  -1.20635    234214.2
  16242.313  0.484403  -1.20696   235545.22
  16246.159  0.472551  -1.20752   238316.94
  16250.354  0.465614  -1.20795   242778.34
  16254.553    0.457596  -1.20847   246698.44
  16258.753  0.458628  -1.20903   249679.23
  16262.957  0.469397  -1.20957   251880.72
  16267.162  0.478987  -1.21017   252999.91
  16271.719  0.49579  -1.21087   254987.78
  16276.280   0.5111982  -1.21156   257617.34
  16280.844  0.519605  -1.21212   261253.59
  16285.760  0.511787  -1.21283   264852.56
  16290.328  0.488687  -1.21345   267571.19
  16295.252   0.4659844  -1.2141   270314.53
  16300.179  0.460941   -1.214694   273467.56
  16305.459  0.46494  -1.21547   276115.28
  16310.392   0.4725763  -1.21614   279490.69
  16315.680  0.481889  -1.21686   282130.81
  16320.972  0.472727   -1.217673   285399.62
  16326.268  0.459947  -1.21836   288165.09
  16331.564  0.467644  -1.21903   291304.28
  16337.221  0.477957  -1.21985   294141.19
  16342.881  0.480862  -1.22065   297523.75
  16348.544  0.487227  -1.22146   300747.03
  16354.211  0.481599   -1.222221   303940.97
  16360.238  0.462588  -1.22306   307059.62
  16365.914  0.446941  -1.22381   310774.97
  16371.948  0.448247  -1.2246      313766
  16377.989  0.458545  -1.22553   317097.75
  16384.389  0.460345  -1.22638   320050.16
  16390.438  0.46414  -1.22714   323782.28
  16396.848  0.469913   -1.228092   327201.09
  16403.262  0.462153  -1.22895   330651.59
  16409.684   0.4533745  -1.22985   333981.81
  16416.107  0.449119  -1.23073   337603.69
  16422.895  0.452765  -1.23168   340628.28
  16429.332  0.451439  -1.2326   344043.56
  16436.129  0.438167  -1.23353   347518.53
  16443.291  0.43476  -1.23448   351207.19
  16450.104  0.436704   -1.235459   354540.53
  16457.277  0.450675  -1.23641   357780.59
  16464.100   0.4660961  -1.23735   361072.31
  16471.289  0.456782   -1.238399   365001.75
  16478.842  0.434615  -1.23943   367739.87
  16486.043   0.4274065  -1.24039   370958.69
  16493.611  0.428553  -1.24142   373823.22
  16500.826  0.428458  -1.24238   376798.41
  16508.406  0.433515  -1.24338   379943.31
  16516.357  0.432307  -1.2445   382863.91
  16523.953  0.428731  -1.24546   386235.19
  16531.920  0.427205  -1.24659   389248.16
  16539.531  0.431211  -1.24761   392494.84
  16547.875  0.430705  -1.24881   395210.19
  16555.863  0.426851  -1.24984   398405.25
  16563.859  0.422311  -1.25093      402002
  16572.230  0.417075  -1.25205   404478.44
  16580.607  0.410274    -1.25327   407666.59
  16588.992  0.408783   -1.254349   410084.41
  16597.387  0.414889  -1.25549   413232.94
  16605.793  0.415949  -1.25663   416214.16
  16614.570  0.413807  -1.2578   418930.06
  16622.992  0.411975   -1.258907   421875.66
  16631.789  0.407621  -1.26004   424177.94
  16640.963  0.399643  -1.26136   427087.94
  16649.779  0.399006  -1.2626   429375.59
  16658.604  0.406705  -1.26381   432372.97
  16667.809  0.404228  -1.265   434648.03
  16677.021  0.395885  -1.26625   436803.81
  16686.246  0.391677   -1.267423   439210.25
  16695.480  0.388803  -1.2686   441191.41
  16705.096  0.39361  -1.26984   444252.22
  16714.723  0.394515   -1.271119   444603.75
  16723.990  0.388283  -1.27238   447388.97
  16733.639  0.383981  -1.27363   449881.91
  16743.670  0.382901   -1.274875    451691.5
  16753.342  0.38225   -1.276118   453883.81
  16763.396  0.382046  -1.27746   454634.81
  16773.094  0.379927  -1.27859    456320.5
  16783.174  0.374529  -1.27991   457797.87
  16793.641    0.372247  -1.28121   459423.94
  16803.746  0.369292  -1.28247   460509.72
  16813.863  0.368566  -1.28377   461565.16
  16824.369    0.371147  -1.28501   464571.31
  16834.887  0.366014  -1.28634   466077.16
  16845.420  0.364824  -1.28765   466904.72
  16855.965  0.363852  -1.28898   467874.94
  16866.525  0.35779  -1.29031   469095.87
  16877.477  0.35524  -1.29159   469905.47
  16888.441  0.35452  -1.29298   471456.78
  16899.041  0.352956   -1.294252   472549.78
  16910.416  0.351927  -1.29552    474236.5
  16921.424  0.349433   -1.296876   476628.87
  16932.447  0.346345  -1.29824   478840.97
  16943.865  0.344039   -1.299643   480332.72
  16955.301  0.34349  -1.30102   481950.19
  16966.371  0.342961  -1.30238   482946.37
  16977.836  0.3379  -1.30383   483411.22
  16989.699  0.333154  -1.3053   483210.75
  17001.197  0.331297  -1.30666      484993

File: SrSO4_10K_02.xdi
# XDI/1.0 EXAFS Data Collector 1.1 AD.RGN
# Column.1: energy eV
# Column.2: mutrans
# Column.3: murefer
# Column.4: i0
# Beamline.name: SSRL 4-3
# Detector.I0: N2 15cm
# Detector.I1: N2+Ar 30cm
# Detector.If: Ar   (Lytle detector, using Rb Filter)
# Detector.I2: Ar
# Element.edge: K
# Element.symbol: Sr
# Mono.d_spacing: 1.920128
# Mono.name: Si(220)
# Mono.notes: (?) unfocussed, detuned 50%, clockwise at E=17000eV
# Sample.formula: SrSO4
# Sample.name: strontium sulfate
# Sample.prep: powder
# Sample.reference: SrCO3
# Sample.temperature: 10K
# Scan.start_time: 1995-06-16 08:48:56
# ///
#    Note: mono d_spacing is nominal!
#-------------
#   energy   mutrans       murefer      i0
  15699.933 0.0843014  -1.13145    125417.7
  15719.844 0.081466  -1.13444    123964.7
  15740.136 0.0785327  -1.13748    122543.7
  15760.152 0.0756249  -1.14035    119631.7
  15779.891 0.0728518  -1.14316    120172.7
  15800.011 0.0699802  -1.14608    118830.7
  15819.854  0.06709871  -1.14897    117701.7
  15840.076 0.0642364   -1.151916    116439.7
  15860.021 0.0614062  -1.15476    115104.7
  15880.018 0.0585969  -1.15767    113813.7
  15900.063 0.0557664  -1.16051    112527.7
  15920.164 0.0529853  -1.1634    111372.7
  15939.978 0.0502168  -1.16632    110082.7
  15959.844 0.0475707  -1.16917    108842.7
  15980.097 0.0448004  -1.17205    107676.7
  16000.064 0.0421926  -1.1749    106317.7
  16020.082 0.0396462  -1.17775    105156.7
  16040.152 0.0372302  -1.18065    103801.7
  16059.933 0.0350474  -1.18341    102655.7
  16080.104 0.0333554  -1.18627    101218.7
  16099.984 0.0331054  -1.18902    100127.7
  16119.917 0.0393754  -1.19172   98872.703
  16122.670 0.0417544  -1.19201   98753.703
  16125.079 0.0449829  -1.19228   98519.703
  16127.490 0.0500016   -1.192567   98529.703
  16129.901 0.0582802  -1.19288   98340.703
  16132.657 0.0790897  -1.19312   98082.703
  16135.069  0.12019  -1.19291   98089.703
  16137.483  0.207238  -1.1925   97831.703
  16139.897  0.375672  -1.19264   97784.703
  16142.657   0.6301902  -1.19248   97500.703
  16145.073  0.829223   -1.193389   97452.703
  16147.490  0.805236  -1.19465   97187.703
  16149.907  0.608873  -1.19484   97087.703
  16152.670  0.458318   -1.194918   96918.703
  16155.090  0.433207  -1.19505   193430.41
  16156.473  0.445679  -1.19532   193214.25
  16157.854  0.464083  -1.19559   193180.78
  16159.237  0.476478  -1.19589   193420.02
  16160.968  0.478316  -1.19617   193475.94
  16162.695  0.471504  -1.19633   193564.56
  16164.426  0.466287  -1.19658   193683.87
  16166.157  0.467936  -1.19665   194016.87
  16168.234  0.483647  -1.19683   194064.58
  16170.311  0.512098  -1.19725   193533.97
  16172.388  0.546979  -1.19734   194395.05
  16174.466  0.583632  -1.19768   196126.83
  16176.545  0.610891  -1.19802    197334.3
  16178.971  0.606377  -1.19849   197760.45
  16181.399  0.558546  -1.19877   198902.31
  16183.826  0.513205  -1.19888   199730.86
  16186.254  0.503065  -1.19908   200660.09
  16189.030  0.532327   -1.199457   201556.03
  16191.809  0.566222  -1.20012   202865.66
  16194.587  0.557115  -1.20066   203968.98
  16197.366  0.514437  -1.20104      205198
  16200.493  0.47501  -1.20135    206546.7
  16203.274  0.462381  -1.20166   208078.09
  16206.405  0.45544  -1.2022   209877.19
  16209.884  0.45159  -1.20254   211323.97
  16213.016  0.468684  -1.20295   212957.45
  16216.499    0.507575  -1.20341   214566.62
  16219.981  0.53634  -1.20398   216264.48
  16223.468  0.54441  -1.20443   217897.05
  16226.954  0.545292  -1.20493    219585.3
  16230.792  0.552513  -1.20546   221397.23
  16234.281  0.540491  -1.20596   222591.87
  16238.122  0.508753  -1.20643    223559.2
  16242.313  0.484632  -1.20722   225083.22
  16246.159  0.472747  -1.20751   227923.94
  16250.354   0.4658702  -1.20811   232209.34
  16254.553  0.457781  -1.20869   236040.44
  16258.753  0.458868   -1.209321   238818.23
  16262.957  0.469806  -1.2099   240558.72
  16267.162  0.47932  -1.21043   242258.91
  16271.719  0.496283  -1.21119   243948.78
  16276.280  0.511541  -1.21189   246689.34
  16280.844  0.51993  -1.21242   250308.59
  16285.760  0.511834  -1.21315   253453.55
  16290.328  0.488695  -1.21382    256395.2
  16295.252  0.466085  -1.21441   259126.53
  16300.179  0.461166  -1.21508   262286.56
  16305.459  0.465332  -1.21581   264776.28
  16310.392  0.473067  -1.21645   267762.69
  16315.680  0.482323  -1.21721   270716.81
  16320.972  0.472989  -1.21796   273531.62
  16326.268  0.460124  -1.21846   276510.09
  16331.564  0.46798  -1.21915   279760.28
  16337.221  0.478151  -1.21998   282408.19
  16342.881   0.4811012  -1.22084   285661.75
  16348.544  0.487436  -1.22163   288822.03
  16354.211  0.481673  -1.22247   292040.97
  16360.238  0.462653  -1.22332   295424.62
  16365.914   0.4470974  -1.22407   298397.97
  16371.948  0.448464  -1.22494      301462
  16377.989  0.458813   -1.225793   304806.75
  16384.389  0.460539  -1.22675   308255.16
  16390.438  0.464463   -1.227559   311789.28
  16396.848  0.470173   -1.228469   314844.09
  16403.262  0.462345  -1.22935   318441.59
  16409.684  0.453598  -1.2303   321958.81
  16416.107  0.449405  -1.23118   325383.69
  16422.895  0.453064  -1.23214   328571.28
  16429.332  0.451596  -1.23299   332781.56
  16436.129  0.438289  -1.23396   335690.53
  16443.291  0.435089  -1.23496   339158.19
  16450.104  0.437066  -1.23588   342602.53
  16457.277  0.451196  -1.23688   345956.59
  16464.100  0.466441  -1.23781   349284.31
  16471.289  0.456892  -1.23889   352973.75
  16478.842   0.4348204  -1.24001   356566.87
  16486.043  0.427776  -1.241   359516.69
  16493.611  0.428974  -1.24208   362610.22
  16500.826  0.428927  -1.24306   365877.41
  16508.406  0.434068  -1.24409   369506.31
  16516.357  0.432765  -1.24523   372718.91
  16523.953  0.429239  -1.24622   376428.19
  16531.920  0.427747  -1.24733   379506.16
  16539.531  0.431719  -1.24834   383716.84
  16547.875  0.43119  -1.24953   386529.19
  16555.863  0.427387  -1.25062   389206.25
  16563.859  0.422825  -1.25174      393086
  16572.230  0.417643  -1.25288   396073.44
  16580.607  0.410792   -1.254041   398932.59
  16588.992  0.409386  -1.25517   402311.41
  16597.387  0.415505  -1.2563   405014.94
  16605.793  0.416497  -1.25739   407638.16
  16614.570  0.414418  -1.25862   410762.06
  16622.992  0.412582  -1.25975   413206.66
  16631.789  0.408238  -1.26093   416151.94
  16640.963  0.400155  -1.26215   419604.94
  16649.779  0.39953  -1.26331   422848.59
  16658.604  0.407199  -1.26448   425200.97
  16667.809  0.404684  -1.26572   427982.03
  16677.021  0.396295  -1.26693   430902.81
  16686.246  0.392155  -1.2681   432709.25
  16695.480  0.389276  -1.2693   435555.41
  16705.096  0.394145   -1.270565   437479.22
  16714.723  0.394982  -1.27181   438631.75
  16723.990   0.3886632  -1.27303   442608.97
  16733.639  0.384331  -1.27421   445161.91
  16743.670  0.383253  -1.27548    446812.5
  16753.342  0.382602  -1.27674   448881.81
  16763.396  0.382475   -1.278071   450607.81
  16773.094  0.380325  -1.27929    452693.5
  16783.174  0.374982  -1.28059   454747.87
  16793.641  0.372645  -1.2819   455926.94
  16803.746  0.3697   -1.283191   457889.72
  16813.863  0.368914   -1.284297   459221.16
  16824.369  0.371455  -1.28563   463615.31
  16834.887  0.36634  -1.28696   464064.16
  16845.420  0.365172  -1.28827   466100.72
  16855.965  0.364076  -1.28961   466905.94
  16866.525  0.357927  -1.29092   468137.87
  16877.477  0.355528  -1.29224   469605.47
  16888.441  0.354747  -1.29368   470026.78
  16899.041  0.353343  -1.29506   471527.78
  16910.416  0.352247  -1.29641    472425.5
  16921.424  0.349752  -1.2978   474025.87
  16932.447  0.346651  -1.29916   474548.97
  16943.865  0.344331  -1.30062   475501.72
  16955.301  0.343831  -1.302   476546.19
  16966.371  0.34323  -1.30342   477108.37
  16977.836  0.338086  -1.30486   477630.22
  16989.699   0.3332592  -1.3063   477750.75
  17001.197  0.331579  -1.30772      479522

File: SrSO4_10K_03.xdi
# XDI/1.0 EXAFS Data Collector 1.1 AD.RGN
# Column.1: energy eV
# Column.2: mutrans
# Column.3: murefer
# Column.4: i0
# Beamline.name: SSRL 4-3
# Detector.I0: N2 15cm
# Detector.I1: N2+Ar 30cm
# Detector.If: Ar   (Lytle detector, using Rb Filter)
# Detector.I2: Ar
# Element.edge: K
# Element.symbol: Sr
# Mono.d_spacing: 1.920128
# Mono.name: Si(220)
# Mono.notes: (?) unfocussed, detuned 50%, clockwise at E=17000eV
# Sample.formula: SrSO4
# Sample.name: strontium sulfate
# Sample.prep: powder
# Sample.reference: SrCO3
# Sample.temperature: 10K
# Scan.start_time: 1995-06-16 08:48:56
# ///
#    Note: mono d_spacing is nominal!
#-------------
#   energy   mutrans       murefer      i0
  15699.933 0.0843543  -1.13212    124056.7
  15719.844 0.0814962  -1.13508    122655.7
  15740.136 0.0785653  -1.13814    121528.7
  15760.152 0.0756292  -1.14101    118430.7
  15779.891 0.0728684  -1.14383    119121.7
  15800.011 0.0699564  -1.14677    117685.7
  15819.854 0.0670993  -1.14964    116529.7
  15840.076 0.0641738  -1.15253    115262.7
  15860.021 0.0613652  -1.15538    114120.7
  15880.018 0.0585221  -1.15833    112758.7
  15900.063  0.05571718  -1.16118    111535.7
  15920.164 0.0529147  -1.16413    110236.7
  15939.978   0.0502067  -1.167    109103.7
  15959.844 0.0474701  -1.16979    107773.7
  15980.097 0.0447499  -1.17271    106561.7
  16000.064 0.0421096  -1.17561    105358.7
  16020.082 0.0395512  -1.17852    104140.7
  16040.152 0.0371149  -1.18132    102855.7
  16059.933 0.0349705  -1.18417    101771.7
  16080.104 0.0332795  -1.18705    100345.7
  16099.984 0.033068  -1.18982   99101.703
  16119.917 0.0393595   -1.192529   97823.703
  16122.670 0.0417485  -1.19283   97764.703
  16125.079 0.044979  -1.19304   97595.703
  16127.490 0.0501318  -1.19334   97400.703
  16129.901 0.0585838  -1.19378   97353.703
  16132.657 0.0796696  -1.19394   97187.703
  16135.069   0.1216903  -1.19367   97021.703
  16137.483  0.210356  -1.19324   97032.703
  16139.897  0.380082  -1.19335   96802.703
  16142.657  0.636105  -1.19336   96518.703
  16145.073  0.831703  -1.19433   96527.703
  16147.490  0.80151  -1.19557   96353.703
  16149.907  0.605292  -1.19563   96185.703
  16152.670  0.45677  -1.19582   96097.703
  16155.090  0.433238  -1.19587   191735.41
  16156.473  0.445959  -1.19608   191653.25
  16157.854  0.464259  -1.19647   191822.78
  16159.237   0.4765504  -1.19682   191788.02
  16160.968  0.478213  -1.19705   191892.94
  16162.695  0.471446  -1.19726   192085.56
  16164.426   0.4662303  -1.19759   192443.87
  16166.157  0.468009  -1.19761   192724.87
  16168.234  0.483847  -1.19776   192818.58
  16170.311  0.512476  -1.19811   192284.97
  16172.388  0.547383  -1.19838   193267.05
  16174.466  0.583941  -1.19866   194632.83
  16176.545  0.611093  -1.19906    195631.3
  16178.971  0.606059  -1.19948   196480.45
  16181.399  0.557911  -1.19968   197076.31
  16183.826  0.512813  -1.1998   198167.86
  16186.254  0.503099  -1.20008   199165.09
  16189.030  0.532609  -1.20046   200250.03
  16191.809  0.566262  -1.20106   201691.66
  16194.587  0.55679  -1.20168   202853.98
  16197.366  0.514014  -1.20203      204128
  16200.493  0.474663  -1.20237    205444.7
  16203.274  0.462224   -1.202819   206896.09
  16206.405  0.455334  -1.20328   208338.19
  16209.884   0.4515647  -1.20357   210083.97
  16213.016  0.468853  -1.20383   211526.45
  16216.499  0.507795  -1.20444   213387.62
  16219.981  0.536416  -1.20505   215205.48
  16223.468  0.544337  -1.20551   216740.05
  16226.954  0.54522   -1.205906    218736.3
  16230.792   0.5525062  -1.20648   220426.23
  16234.281  0.54039  -1.20694   221607.87
  16238.122  0.508426  -1.20751    222317.2
  16242.313  0.48448   -1.208175   223604.22
  16246.159  0.472728  -1.20873   226457.94
  16250.354  0.465774  -1.20918   230893.34
  16254.553  0.457743  -1.20978   234694.44
  16258.753  0.459086  -1.21038   237487.23
  16262.957  0.469827  -1.21076   239709.72
  16267.162  0.479287  -1.21138   241399.91
  16271.719  0.496198  -1.21211   242991.78
  16276.280  0.511513  -1.21277   245543.34
  16280.844   0.5198414  -1.21332   249275.59
  16285.760  0.511827  -1.214   252602.55
  16290.328  0.488721  -1.21464    255324.2
  16295.252   0.4660183  -1.2153   258194.53
  16300.179  0.461186  -1.21596   261116.56
  16305.459  0.465326  -1.21667   264077.28
  16310.392  0.473106  -1.21729   266946.69
  16315.680  0.482332    -1.21809   270051.81
  16320.972  0.472937  -1.21885   272910.62
  16326.268  0.460241  -1.21954   275728.09
  16331.564  0.468109  -1.22026   278806.28
  16337.221  0.478236   -1.221074   282182.19
  16342.881  0.481183  -1.2219   285521.75
  16348.544  0.48758  -1.22272   288502.03
  16354.211  0.481835   -1.223448   291524.97
  16360.238  0.462706  -1.22437   294833.62
  16365.914  0.447218  -1.22524   297870.97
  16371.948  0.448692  -1.22607      301161
  16377.989  0.458963  -1.22689   304703.75
  16384.389  0.460708  -1.22782   307727.16
  16390.438  0.464589  -1.22864   311109.28
  16396.848  0.470291  -1.22952   314673.09
  16403.262  0.462462   -1.230404   317940.59
  16409.684  0.453687  -1.23128   321250.81
  16416.107  0.449528  -1.23218   324890.69
  16422.895  0.453149   -1.233109   327913.28
  16429.332  0.451678  -1.23401   331501.56
  16436.129  0.438391  -1.23497   334802.53
  16443.291  0.43517  -1.236   338053.19
  16450.104  0.437106  -1.23689   341662.53
  16457.277  0.451237  -1.23788   344764.59
  16464.100  0.466586  -1.23883   347957.31
  16471.289  0.456921  -1.23989   351660.75
  16478.842  0.434863  -1.24089   355109.87
  16486.043  0.42779  -1.24182   358857.69
  16493.611  0.428976  -1.24287   362006.22
  16500.826  0.428952    -1.24383   365152.41
  16508.406  0.43402  -1.24489   368999.31
  16516.357  0.43276  -1.24598   372434.91
  16523.953  0.429273  -1.24704   375536.19
  16531.920  0.427699  -1.24807   378928.16
  16539.531  0.431704  -1.24911   382586.84
  16547.875  0.431136  -1.25025   385637.19
  16555.863  0.427374  -1.2514   388353.25
  16563.859  0.422797  -1.25241      391947
  16572.230  0.417615  -1.2536   394718.44
  16580.607  0.410811  -1.25472   397816.59
  16588.992  0.409373  -1.25582   401491.41
  16597.387  0.415492  -1.25695   404209.94
  16605.793  0.416511  -1.25803   406623.16
  16614.570  0.414356  -1.25915   410623.06
  16622.992  0.412587  -1.26027   413421.66
  16631.789  0.408307   -1.261436   416527.94
  16640.963  0.400209  -1.26271   418912.94
  16649.779  0.399659  -1.26388   422072.59
  16658.604  0.407241  -1.26503   425529.97
  16667.809    0.404763  -1.26621   428203.03
  16677.021  0.396391  -1.26744   430231.81
  16686.246  0.392302  -1.26863   433196.25
  16695.480  0.389487  -1.26981   435530.41
  16705.096  0.394278  -1.27101   437656.22
  16714.723  0.395032  -1.27214   439296.75
  16723.990  0.388744  -1.27333   442862.97
  16733.639  0.384478  -1.27457   445322.91
  16743.670  0.383435  -1.27579    447593.5
  16753.342  0.382794  -1.27701   449759.81
  16763.396  0.382536  -1.27823   452089.81
  16773.094  0.380484  -1.27946    454137.5
  16783.174  0.375053  -1.2807   455898.87
  16793.641  0.372754  -1.28207   457493.94
  16803.746  0.369881  -1.28343   459618.72
  16813.863  0.369157  -1.28468   460516.16
  16824.369  0.371695  -1.28596   463509.31
  16834.887  0.366567   -1.287191   464674.16
  16845.420   0.3653659  -1.28847   466333.72
  16855.965  0.364273  -1.28979   467783.94
  16866.525  0.358115  -1.29102   468923.87
  16877.477  0.355734   -1.292389   470460.47
  16888.441   0.3549198  -1.29372   471234.78
  16899.041  0.353475   -1.295017   472978.78
  16910.416  0.352489  -1.2964    474201.5
  16921.424  0.349962  -1.29775   475433.87
  16932.447  0.346878  -1.29909   476529.97
  16943.865  0.344596  -1.30052   477507.72
  16955.301  0.344081  -1.30188   477767.19
  16966.371   0.3434105  -1.30321   479275.37
  16977.836  0.338339  -1.30463   479525.22
  16989.699  0.333525  -1.30607   479555.75
  17001.197  0.331702  -1.30745      480679