Folder: XASDataLibrary/data/Sr (part 10)

File: SrTiO3_rt_02.xdi
# XDI/1.0 EXAFS Data Collector 1.1 AD.RGN
# Column.1: energy eV
# Column.2: mutrans
# Column.3: mufluor
# Column.4: murefer
# Column.5: i0
# Beamline.name: SSRL 4-3
# Detector.I0: N2 15cm
# Detector.I1: N2+Ar 30cm
# Detector.If: Ar (Lytle detector, using Rb filter)
# Detector.I2: Ar
# Element.edge: K
# Element.symbol: Sr
# Mono.d_spacing: 1.920128
# Mono.name: Si(220)
# Mono.notes: (?) unfocussed, detuned 50%, clockwise at E=17000eV
# Sample.formula: SrTiO3
# Sample.name: strontium titanate
# Sample.prep: powder
# Sample.reference: SrCO3
# Sample.temperature: room temperature
# Scan.start_time: 1995-06-14 20:43:05
# ///
#    Note: mono d_spacing is nominal!
#-------------
#   energy   mutrans      mufluor     murefer      i0
  15699.933  -1.62732  0.340532   1.07802   219065.59
  15719.844   -1.631948  0.332652   1.07578   216691.59
  15740.136  -1.63678  0.323798    1.073418   214565.59
  15760.152  -1.64168  0.317159   1.07107   209443.59
  15779.891  -1.64612  0.30681    1.068867   210403.59
  15800.011  -1.65099  0.299079   1.06649   208088.59
  15819.854  -1.65565  0.291776   1.0642   206198.59
  15840.076  -1.66041  0.282685   1.06191   204018.59
  15860.021  -1.66509  0.276048   1.0596   201830.59
  15880.018  -1.66979  0.269509   1.05726   199506.59
  15900.063  -1.67454  0.264093   1.05482   197441.59
  15920.164  -1.6792  0.257862   1.05253   195231.59
  15939.978   -1.683811   0.2533595   1.05016   193183.59
  15959.844  -1.68836  0.249473   1.04794   190733.59
  15980.097  -1.693    0.248147   1.04553   188613.59
  16000.064  -1.69748  0.247725   1.04314   186605.59
  16020.082  -1.70199  0.2505   1.04085   184494.59
  16040.152  -1.70611  0.256328   1.03844   182176.59
  16059.933  -1.71007   0.2681357   1.03621   180031.59
  16080.104  -1.71345  0.295244   1.03398   177754.59
  16099.984  -1.71482  0.356991   1.03213   175673.59
  16119.917  -1.7063  0.600606    1.031858   173429.59
  16122.670  -1.70273  0.678404   1.03232   173029.59
  16125.079  -1.69729  0.788284   1.03293   172767.59
  16127.490  -1.68775  0.971141   1.03459   172553.59
  16129.901  -1.66879   1.32252   1.03779   172500.59
  16132.657  -1.61908   2.19796   1.04772   172141.59
  16135.069  -1.52601   3.73399   1.06605   171761.59
  16137.483  -1.37162   5.98398   1.09064   171308.59
  16139.897  -1.16582   8.11414   1.11963   171106.59
  16142.657 -0.952277   8.124   1.15019   170899.59
  16145.073 -0.931068   8.13694   1.15632   170627.59
  16147.490  -1.055   8.15476   1.14362   170254.59
  16149.907  -1.18805   8.02894   1.12776   169708.59
  16152.670  -1.24826    7.369626   1.11484   169589.59
  16155.090  -1.23802   7.52786   1.10849   338490.19
  16156.473  -1.22814   7.65127   1.10634   337899.06
  16157.854  -1.22071   7.73773    1.104522   338100.69
  16159.237  -1.2187   7.75955   1.10333   338292.06
  16160.968  -1.22271   7.71519   1.10287   338331.19
  16162.695  -1.22596   7.688    1.103562   339209.06
  16164.426   -1.221628   7.75948   1.10526   339817.66
  16166.157  -1.20991   7.91776   1.10744   339249.03
  16168.234  -1.18722   8.20192   1.10965   339399.12
  16170.311  -1.15896   8.31754   1.1114      340229
  16172.388  -1.13123   8.31723   1.11365   341748.59
  16174.466   -1.112319   8.30403   1.11596   343963.94
  16176.545  -1.11329   8.31353   1.11762   345364.03
  16178.971  -1.14066   8.32476   1.11899   346891.87
  16181.399  -1.17482   8.34512   1.12007   348363.47
  16183.826  -1.18854   8.22445   1.12001   349604.81
  16186.254  -1.17539   8.37851   1.11907   351653.91
  16189.030  -1.15018   8.39215   1.11602   353470.75
  16191.809  -1.14793   8.41166   1.11177   355389.34
  16194.587  -1.17458   8.40673   1.10844   357572.69
  16197.366  -1.20682   8.04227   1.10671   359916.75
  16200.493   -1.228787   7.80215   1.10527   362059.59
  16203.274  -1.23757    7.708747   1.10407   365081.16
  16206.405    -1.24243   7.66875   1.10362    367229.5
  16209.884  -1.23394   7.80169   1.10461   370184.56
  16213.016  -1.21165   8.09395    1.105595   373030.37
  16216.499  -1.18619   8.40844   1.10599   375894.94
  16219.981  -1.17354   8.56148   1.10579   378584.28
  16223.468   -1.169811   8.61841   1.10559   381455.34
  16226.954  -1.1658   8.68062    1.105335   383661.16
  16230.792  -1.1694   8.65822   1.1049   385522.72
  16234.281  -1.18772   8.44017   1.10482      387840
  16238.122  -1.20887   8.18864   1.10478   391567.06
  16242.313  -1.2239   8.02009    1.103575   396003.87
  16246.159  -1.23267   7.94537   1.1021   401783.41
  16250.354  -1.24006    7.887604   1.10045   407585.72
  16254.553  -1.24331   7.87687   1.09884   413055.78
  16258.753  -1.23815   7.96423   1.09883   416663.56
  16262.957  -1.23114   8.05933   1.09762   419927.09
  16267.162   -1.222828   8.17142   1.0971   423604.41
  16271.719  -1.2115   8.32562   1.09638   428120.44
  16276.280  -1.20499   8.42812   1.09574   433293.22
  16280.844  -1.20647   8.4297   1.0954   438416.75
  16285.760  -1.21921   8.29488   1.09549   444080.03
  16290.328  -1.23369   8.13551   1.09522   449246.06
  16295.252  -1.24293   8.04982   1.09454   454284.84
  16300.179  -1.24435   8.05769   1.09384   458644.34
  16305.459  -1.24237   8.10673    1.093621   463834.62
  16310.392   -1.237849   8.18268    1.093183   468599.66
  16315.680  -1.23723   8.2124   1.09235   473532.41
  16320.972  -1.24365   8.15691   1.09139   479679.94
  16326.268  -1.24511   8.16667   1.09049   484545.19
  16331.564  -1.24103   8.23938   1.08936   490133.22
  16337.221  -1.241   8.26176   1.0883   495061.97
  16342.881  -1.24102   8.28974   1.08735   500474.47
  16348.544  -1.2412   8.30692   1.08644   505723.72
  16354.211   -1.248673   8.24481   1.08591   511441.72
  16360.238  -1.25933    8.140885   1.08567   515993.47
  16365.914  -1.26479    8.099375    1.085444   522190.97
  16371.948  -1.26253   8.15789   1.08486   527604.25
  16377.989  -1.25947   8.22272     1.08384   533966.19
  16384.389  -1.2594   8.25067   1.08276   539360.94
  16390.438  -1.258   8.29597   1.08173   544909.44
  16396.848  -1.2599    8.298476   1.08067   550603.69
  16403.262  -1.26581   8.25778   1.07988   556368.69
  16409.684  -1.27081   8.22077   1.0792   561300.37
  16416.107  -1.27312    8.225888   1.07845   566386.87
  16422.895  -1.27454   8.23687   1.0774   572794.12
  16429.332  -1.27903   8.21103   1.07638   578088.06
  16436.129  -1.28374   8.18145   1.07553   584280.81
  16443.291  -1.28433   8.20906   1.07463   589746.25
  16450.104  -1.2831   8.25626    1.073894    595726.5
  16457.277  -1.27973   8.33082   1.07313   600484.44
  16464.100  -1.27969   8.3601   1.07235   606081.19
  16471.289  -1.28617   8.3126   1.07147   612340.62
  16478.842  -1.29309   8.25862   1.0705   617427.87
  16486.043  -1.29582   8.25738   1.06946   623809.81
  16493.611  -1.29805   8.26408   1.0685    629420.5
  16500.826  -1.29989   8.27182   1.06758   635356.94
  16508.406  -1.30108   8.29009   1.06658   641296.19
  16516.357  -1.3035   8.29687   1.06551   646600.12
  16523.953  -1.30562   8.30291   1.06455   652395.81
  16531.920  -1.30671   8.32709   1.06362   657472.25
  16539.531   -1.307793   8.34552   1.06261   662713.44
  16547.875  -1.31077   8.34521   1.06163   667633.37
  16555.863  -1.31376   8.34427   1.06053   672889.06
  16563.859   -1.316819   8.3398   1.05953    680192.5
  16572.230  -1.32059   8.32896   1.05849   685429.69
  16580.607  -1.324   8.32358   1.05748   690253.62
  16588.992  -1.32591   8.33854   1.05638   695002.31
  16597.387  -1.32745   8.35544   1.05534   699984.75
  16605.793  -1.32939   8.36805   1.05431   703620.94
  16614.570  -1.33172   8.3758   1.05332   709140.81
  16622.992   -1.334185   8.38253   1.05231    713216.5
  16631.789  -1.33751   8.37834   1.05121   718306.94
  16640.963  -1.34096   8.37741   1.05007   722820.06
  16649.779  -1.34311   8.38665   1.04899      727322
  16658.604    -1.34526   8.4008   1.04789   731177.69
  16667.809  -1.34855   8.39878   1.04677   736089.06
  16677.021    -1.35188   8.39519   1.04566   739788.25
  16686.246   -1.354759   8.39967   1.04449   743758.12
  16695.480  -1.35709   8.4118   1.04337   748128.81
  16705.096  -1.35924   8.42784   1.04216   751382.19
  16714.723  -1.3622   8.43213   1.04094   752894.31
  16723.990   -1.365109   8.4322   1.03988   758738.25
  16733.639  -1.3682   8.43529   1.03875   761369.87
  16743.670  -1.37118   8.4432   1.03754   764983.25
  16753.342  -1.37401   8.44703   1.03638   768327.44
  16763.396  -1.37695   8.45488   1.03517   770301.31
  16773.094  -1.38005   8.45625   1.03397   772675.94
  16783.174  -1.38316   8.46065   1.03273   775743.31
  16793.641  -1.38612   8.46806   1.03148   778928.44
  16803.746  -1.3889   8.47482   1.03017   779798.31
  16813.863  -1.39149   8.48536   1.02922   777882.94
  16824.369  -1.39457   8.49323   1.02783   785356.31
  16834.887  -1.39778   8.49647   1.02656   786291.44
  16845.420  -1.40071   8.50687    1.025316   789149.31
  16855.965  -1.40385   8.5109   1.02406   790818.94
  16866.525  -1.40708   8.51387   1.02279   792082.31
  16877.477  -1.41028   8.51812   1.02155   792116.37
  16888.441  -1.41339   8.52745   1.02029   793443.25
  16899.041  -1.41644   8.53284   1.01907   793605.87
  16910.416  -1.41949   8.53908    1.017738   794173.25
  16921.424  -1.42243   8.54896   1.01646   794689.31
  16932.447  -1.42559   8.55338   1.01515   795608.19
  16943.865  -1.42884   8.55877   1.01385   795616.81
  16955.301  -1.43202   8.56588   1.01247   793519.12
  16966.371  -1.43516   8.57196   1.01128   795127.25
  16977.836  -1.43849   8.57787   1.01001   795163.06
  16989.699  -1.44185   8.5845    1.008631   793744.69
  17001.197  -1.44489   8.59237   1.00728      794251

File: SrTiO3_rt_03.xdi
# XDI/1.0 EXAFS Data Collector 1.1 AD.RGN
# Column.1: energy eV
# Column.2: mutrans
# Column.3: mufluor
# Column.4: murefer
# Column.5: i0
# Beamline.name: SSRL 4-3
# Detector.I0: N2 15cm
# Detector.I1: N2+Ar 30cm
# Detector.If: Ar (Lytle detector, using Rb filter)
# Detector.I2: Ar
# Element.edge: K
# Element.symbol: Sr
# Mono.d_spacing: 1.920128
# Mono.name: Si(220)
# Mono.notes: (?) unfocussed, detuned 50%, clockwise at E=17000eV
# Sample.formula: SrTiO3
# Sample.name: strontium titanate
# Sample.prep: powder
# Sample.reference: SrCO3
# Sample.temperature: room temperature
# Scan.start_time: 1995-06-14 20:43:05
# ///
#    Note: mono d_spacing is nominal!
#-------------
#   energy   mutrans      mufluor     murefer      i0
  15699.933   -1.625506  0.333048   1.07953   212821.59
  15719.844  -1.63026  0.325688   1.07711   210403.59
  15740.136  -1.63508  0.317867   1.07485   208300.59
  15760.152  -1.64006  0.310682   1.07234   203593.59
  15779.891  -1.64455  0.301851    1.070125   204547.59
  15800.011  -1.64938  0.293675   1.06776   202005.59
  15819.854  -1.65418  0.285993   1.0654   199787.59
  15840.076  -1.65906  0.278843   1.06296   197791.59
  15860.021    -1.66367  0.271184   1.06061   195645.59
  15880.018  -1.66844  0.264488   1.05826   193486.59
  15900.063  -1.6732  0.258224   1.05582   191232.59
  15920.164  -1.67794  0.253359   1.05341   189331.59
  15939.978  -1.68262  0.248884   1.051   187215.59
  15959.844  -1.6872  0.246034   1.04863   184693.59
  15980.097  -1.69195   0.2449849   1.04618   182598.59
  16000.064  -1.69644  0.24453   1.04377   180500.59
  16020.082  -1.70091  0.246877     1.04149   178217.59
  16040.152  -1.70515  0.254266   1.03906   176102.59
  16059.933  -1.7091  0.266262   1.03676   173948.59
  16080.104  -1.71247  0.293288   1.0345   171656.59
  16099.984  -1.71386    0.354963   1.0326   169552.59
  16119.917  -1.70538  0.599675    1.032365   167505.59
  16122.670   -1.701747  0.678327   1.03278   167131.59
  16125.079  -1.69617  0.789421   1.03356   167033.59
  16127.490  -1.68649  0.972563   1.03512   166626.59
  16129.901  -1.66727   1.32828   1.03835   166372.59
  16132.657  -1.6168   2.21845    1.048456   166209.59
  16135.069  -1.52215   3.77256   1.06706   166034.59
  16137.483  -1.36553   6.04279    1.091984   165433.59
  16139.897  -1.15873   8.40772   1.12123   165133.59
  16142.657 -0.94822   8.41938   1.15165   164904.59
  16145.073 -0.930544   8.44483   1.15716   164407.59
  16147.490  -1.05662   8.45537   1.14409   164202.59
  16149.907  -1.18945   7.97966   1.12815   164236.59
  16152.670   -1.247231   7.35975    1.115238   163627.59
  16155.090  -1.23637   7.52757    1.109106   327010.19
  16156.473  -1.22638   7.64428   1.10695   326559.06
  16157.854  -1.21919   7.72624   1.10522   326695.69
  16159.237  -1.21747   7.7435   1.10408   326964.06
  16160.968  -1.22152   7.69501   1.10368   327016.19
  16162.695  -1.22479   7.67293    1.104347   327506.06
  16164.426  -1.22034   7.74434   1.10615   327212.66
  16166.157  -1.20853   7.89803   1.10828   326997.03
  16168.234  -1.18578   8.18754   1.11053   326986.12
  16170.311  -1.15725   8.53172   1.11232      327822
  16172.388  -1.12956   8.62234   1.11453   329656.59
  16174.466   -1.110887   8.59544   1.11686   332303.94
  16176.545  -1.11224   8.61957   1.11851   333103.03
  16178.971  -1.13985   8.63184   1.11987   334642.87
  16181.399  -1.17395   8.33369   1.1208   335691.47
  16183.826  -1.18738   8.20615    1.120859   337369.81
  16186.254  -1.174   8.3936   1.11987   339410.91
  16189.030  -1.14878   8.68978   1.11681   340875.75
  16191.809  -1.14682   8.69896   1.1125   342674.34
  16194.587  -1.17375   8.38437   1.10915   344847.69
  16197.366  -1.20603   8.01936     1.10746   346836.75
  16200.493   -1.227782   7.78625   1.10609   349132.59
  16203.274  -1.23657   7.69532   1.10481   351596.16
  16206.405  -1.24136   7.65597   1.10442    353955.5
  16209.884  -1.23268   7.78693   1.10537   356745.56
  16213.016  -1.21028   8.07391   1.10641   359539.37
  16216.499  -1.18476   8.38916   1.10681   362257.94
  16219.981  -1.17243    8.542076   1.10656   364872.28
  16223.468  -1.16875   8.59897   1.10633   367893.34
  16226.954  -1.16473   8.67028   1.1062   370198.16
  16230.792   -1.168634   8.63447   1.10567   371842.72
  16234.281  -1.18708   8.41525   1.10562      374112
  16238.122  -1.20818   8.16604   1.10554   377361.06
  16242.313  -1.22308   8.00462   1.10442   381465.87
  16246.159  -1.23174   7.93086   1.10289   386770.41
  16250.354  -1.23918   7.87556   1.10125   392685.72
  16254.553  -1.24248   7.8618   1.09984   397731.78
  16258.753  -1.23719   7.95003   1.09885   401354.56
  16262.957  -1.23033   8.04499    1.098853   404277.09
  16267.162  -1.222   8.15535   1.09816   407690.41
  16271.719  -1.21064   8.30568   1.09731   412252.44
  16276.280  -1.20411   8.40634   1.09664   417051.22
  16280.844  -1.20569   8.4064   1.09635   421959.75
  16285.760  -1.21841   8.2752   1.09645   427268.03
  16290.328  -1.23297   8.12086   1.09615   431931.06
  16295.252  -1.24222   8.03616   1.09547   436622.84
  16300.179  -1.2437   8.04419   1.09477   441492.34
  16305.459  -1.24169    8.090854    1.094549   446463.62
  16310.392  -1.23718   8.16779   1.09416   451531.66
  16315.680  -1.23671   8.19542   1.09335   455994.41
  16320.972  -1.24307   8.14046   1.09244   460606.94
  16326.268  -1.24455   8.14931   1.09142   465494.19
  16331.564   -1.240553   8.21981   1.09036   470637.22
  16337.221  -1.24054   8.24641   1.08934   475884.97
  16342.881  -1.24059    8.272569   1.08837   481129.47
  16348.544  -1.24074   8.29181   1.08747   486159.72
  16354.211  -1.24823   8.22338   1.0869   491632.72
  16360.238  -1.25892   8.12131    1.086655   496775.47
  16365.914  -1.26436   8.08381   1.08643   501719.97
  16371.948  -1.26206   8.13997   1.08587   507201.22
  16377.989  -1.25904   8.20317   1.08486   512230.22
  16384.389  -1.25903   8.23485   1.08382   518149.97
  16390.438   -1.257637   8.28049   1.08275   523576.44
  16396.848  -1.25945   8.28525    1.081695   529370.69
  16403.262  -1.26547    8.240559   1.08091   535155.69
  16409.684  -1.27039   8.20846   1.08018   540439.37
  16416.107  -1.27272    8.211289   1.07942   546090.87
  16422.895    -1.27418   8.22237   1.07842   551208.12
  16429.332  -1.27872   8.19403   1.07748   557418.06
  16436.129  -1.2834   8.16921   1.07649   562964.81
  16443.291  -1.28392   8.1963   1.07559   567793.25
  16450.104  -1.28268   8.24489   1.07488    573557.5
  16457.277  -1.27933   8.3203   1.07412   578841.44
  16464.100   -1.279374   8.34687   1.07337   584836.19
  16471.289  -1.28583   8.29793   1.07241   589194.62
  16478.842  -1.29275   8.24455   1.07149   594855.87
  16486.043   -1.295566   8.24418   1.0705   600434.81
  16493.611  -1.2978   8.24994   1.06947    605957.5
  16500.826  -1.29967    8.258453   1.06851   611408.94
  16508.406  -1.30103   8.2789   1.06758   616720.19
  16516.357  -1.30338   8.28273   1.06654   621381.12
  16523.953  -1.30556   8.29069   1.06564   626624.81
  16531.920   -1.306675   8.31195   1.06466   631596.25
  16539.531   -1.307778   8.32954   1.0637   636109.44
  16547.875  -1.31079   8.3317   1.0626   640733.37
  16555.863  -1.31381   8.32916   1.06162   645543.06
  16563.859   -1.316961   8.32445   1.06061    650071.5
  16572.230  -1.32083   8.31407   1.05957   655631.69
  16580.607  -1.32428   8.30948   1.05856   659408.62
  16588.992  -1.32626   8.32149    1.057509   664911.31
  16597.387  -1.32776   8.33848   1.05642   669374.75
  16605.793   -1.329744   8.35141   1.05533   673414.94
  16614.570  -1.33211   8.36259   1.05425   678463.81
  16622.992  -1.33449   8.36926   1.0532    683748.5
  16631.789  -1.33775   8.36823   1.05207   686449.94
  16640.963  -1.34117   8.36351   1.05093   691430.06
  16649.779  -1.34333   8.37659   1.0498      696033
  16658.604  -1.34546   8.38693   1.04869   700198.69
  16667.809  -1.34882   8.38606   1.04757   704114.06
  16677.021  -1.35214   8.38297   1.04647   708463.25
  16686.246  -1.35504   8.3852   1.04531   711929.12
  16695.480   -1.357433   8.39779   1.04416   715221.81
  16705.096  -1.35951   8.4142   1.04298   718967.19
  16714.723  -1.36252    8.418743   1.04178   722001.31
  16723.990  -1.36545   8.42225   1.04071   724871.25
  16733.639   -1.368515   8.42491   1.0395   727700.87
  16743.670  -1.3714   8.43175   1.03828   729723.25
  16753.342  -1.37418   8.43495   1.03707   733836.44
  16763.396  -1.37711   8.44379   1.03581   735773.31
  16773.094  -1.38024    8.444898   1.03466   739255.94
  16783.174  -1.38331    8.448546   1.03339   741899.31
  16793.641  -1.38627   8.45886   1.0321   743272.44
  16803.746  -1.38906   8.46651   1.03085   744826.31
  16813.863  -1.39168   8.47611   1.02988   743835.94
  16824.369  -1.39477   8.48251    1.028418   750451.31
  16834.887  -1.39805   8.48753   1.0272   751273.44
  16845.420  -1.40107   8.49598   1.02594   752617.31
  16855.965  -1.40416   8.50246   1.02462   755070.94
  16866.525     -1.4074   8.50622   1.02336   756505.31
  16877.477  -1.41053   8.50927   1.02201   756805.37
  16888.441  -1.41358   8.51773    1.020712   758427.25
  16899.041  -1.41655   8.52482   1.01946   759682.87
  16910.416  -1.41957   8.53329   1.01813   760366.25
  16921.424  -1.42258   8.54137   1.01686   760571.31
  16932.447  -1.42578   8.54603   1.01557   760490.19
  16943.865  -1.42901   8.55174   1.01422   760020.81
  16955.301  -1.43223   8.55943   1.01288   757731.12
  16966.371   -1.435338   8.56393    1.011757   758912.25
  16977.836  -1.43865   8.56829   1.01033   757465.06
  16989.699  -1.44198   8.57278   1.00899   757709.69
  17001.197  -1.44505    8.582064   1.00764      757013