Folder: XASDataLibrary/data/Sr (part 3)

File: SrCO3_12K_03.xdi
# XDI/1.0 EXAFS Data Collector 1.1 AD.RGN
# Column.1: energy eV
# Column.2: mutrans
# Column.3: i0
# Beamline.name: SSRL 4-3 (?)
# Detector.I0: N2 15cm
# Detector.I1: Ar 30cm
# Element.edge: K
# Element.symbol: Sr
# Mono.d_spacing: 1.92009
# Mono.name: Si(220)
# Mono.notes: (?) unfocussed, detuned 50%, clockwise at E=16800eV
# Sample.formula: SrCO3
# Sample.name: strontianite
# Sample.prep: powder mixed with B2O3 (1:10)
# Sample.reference: none
# Sample.temperature: 12K
# Scan.start_time: 1997-03-17 13:38:14
# ///
#    Note: mono d_spacing is nominal!
#-------------
#   energy   mutrans      i0
  15700.043 -0.0311336   51386.199
  15719.954 -0.036099   50410.199
  15739.919 -0.0376785   48623.199
  15759.935 -0.0407579   48774.199
  15780.002 -0.0413727   47987.199
  15799.958 -0.0435725   47153.199
  15819.965 -0.0440847   46349.199
  15840.023 -0.04723987   45624.199
  15859.968 -0.0484093   44798.199
  15879.964 -0.0509776   44073.199
  15900.011 -0.0516439   43320.199
  15919.941 -0.0536763   42580.199
  15939.925 -0.055095   41807.199
  15959.959 -0.057123   41098.199
  15980.045 -0.0593379   40403.199
  16000.012 -0.0605072   39663.199
  16020.030 -0.0621531   38908.199
  16039.929 -0.0633383   38203.199
  16060.049 -0.0632903   37437.199
  16080.051 -0.0595678   36821.199
  16099.931  0.08130978   35919.199
  16120.035  0.334624   35173.199
  16122.443  0.322344   35358.199
  16125.024  0.316127   35228.199
  16127.435  0.313982   35017.199
  16130.019  0.323046   35043.199
  16132.431   0.3361121   34646.199
  16135.016  0.349501   34696.199
  16137.429  0.364269   34789.199
  16140.016  0.38328   34619.199
  16142.431  0.399493   34572.199
  16145.020  0.412365   34452.199
  16147.436  0.416074   34342.199
  16150.024   0.4125629   34202.199
  16152.443  0.404935   34110.199
  16155.034  0.392931   33980.199
  16156.418  0.385477   33932.176
  16157.800  0.377182   33914.105
  16159.356  0.368397   33885.984
  16160.913  0.361279   33785.816
  16162.642  0.355001   33827.598
  16164.372  0.348732   33754.332
  16166.275  0.342924    33658.02
  16168.179  0.338435   33824.656
  16170.084  0.334713    33699.25
  16172.160  0.334207   33648.789
  16174.412  0.336675   33677.285
  16176.665  0.341927    33903.73
  16178.917  0.347315   33969.129
  16181.345  0.353383   34474.477
  16183.772  0.356467   34641.777
  16186.374  0.358102   35094.031
  16188.977  0.358316   35265.238
  16191.755   0.3594772   35471.395
  16194.532  0.361088     35867.5
  16197.485  0.361302   35892.563
  16200.438  0.362577   36093.574
  16203.394  0.363595   36216.539
  16206.524  0.362103   36383.453
  16209.829  0.35922    36722.32
  16212.961  0.353073   36824.141
  16216.444  0.346975    37224.91
  16219.927  0.339269   37394.637
  16223.413   0.3333742   37503.309
  16226.900  0.33134   37829.938
  16230.563  0.330948   38284.516
  16234.401  0.330783   38565.047
  16238.242  0.332708   38940.527
  16242.084  0.334209   39206.961
  16246.104  0.336369   39445.348
  16250.300  0.339858   39745.684
  16254.323  0.342893   40158.973
  16258.698   0.3413128   40390.215
  16262.902  0.33647   40758.406
  16267.282  0.333867   41208.551
  16271.841  0.334628   41519.648
  16276.400  0.336517   41886.695
  16280.965   0.3376643   42241.695
  16285.705  0.336223   42376.648
  16290.450  0.333643   43188.551
  16295.373   0.3284545    43310.41
  16300.300  0.325465   43791.215
  16305.404  0.323103   44044.977
  16310.514  0.320506   44552.688
  16315.624  0.319384   44851.348
  16320.918   0.3207426   45354.965
  16326.212  0.324323   45816.531
  16331.687  0.327613   46227.047
  16337.165  0.328327    46626.52
  16342.827  0.326175   47053.941
  16348.490  0.322732   47495.313
  16354.333  0.319247   47922.641
  16360.007  0.316408   48308.918
  16366.036   0.3147769   48843.145
  16372.071   0.3136866   49191.328
  16378.111  0.314642   49619.461
  16384.156  0.316886   50093.543
  16390.383  0.315771   50631.578
  16396.791  0.312665   50925.566
  16403.207  0.310679   51184.508
  16409.627  0.306695   51657.398
  16416.230  0.306656   52133.242
  16422.840  0.308134   52207.039
  16429.455  0.309055   52981.785
  16436.254  0.308049   53217.484
  16443.236  0.306466   53590.137
  16450.049  0.304662   53946.738
  16457.223  0.302019   54521.293
  16464.227  0.300919   55205.801
  16471.412  0.299392   55395.258
  16478.787  0.297795   55780.668
  16485.988  0.295697   56127.027
  16493.557  0.295622   56470.344
  16500.949  0.29564   56884.609
  16508.533  0.294683   57324.824
  16516.301  0.2933   57721.992
  16523.898  0.29151   58165.113
  16531.865  0.29104   58420.188
  16539.656  0.290303   59036.211
  16547.639  0.289328   58957.188
  16555.809  0.287016   59347.117
  16563.986  0.285439   59497.996
  16572.176  0.284731   59747.828
  16580.371  0.283943   60284.609
  16588.756   0.2835798   60405.348
  16597.334  0.282304   60647.031
  16605.736  0.27993   61126.672
  16614.514  0.278143   61485.262
  16623.119  0.276667   61494.805
  16631.916  0.276092   61865.301
  16640.725  0.275763   62209.746
  16649.723  0.274613   62447.145
  16658.732  0.273765   62651.492
  16667.936   0.2730312   62838.793
  16676.965  0.270099   62899.047
  16686.375  0.26857   63554.254
  16695.609   0.2673127    63362.41
  16705.041  0.266317    63718.52
  16714.666  0.265868   63996.578
  16724.119  0.264464   63983.594
  16733.768  0.263302   64256.555
  16743.613  0.261639   64275.473
  16753.285  0.259636    64618.34
  16763.342  0.258341    64547.16
  16773.223  0.257737    65182.93
  16783.305  0.25601   64967.656
  16793.396  0.25482   65182.328
  16803.689  0.254005   65037.957
  16813.994   0.2529685   65050.535
  16824.313  0.251479   65342.066
  16834.832  0.250117   65630.547
  16845.363  0.248085   65614.984
  16855.910  0.246441   65715.367
  16866.658  0.244754   66076.703
  16877.420  0.24387   65884.992
  16888.385  0.24218   65946.234
  16899.174  0.240805    65993.43
  16910.170  0.239563   66112.578
  16921.367  0.239003   66423.672
  16932.580  0.238081   65905.719
  16943.809  0.236282   66150.719
  16955.055  0.234866   65931.672
  16966.504  0.233754   65625.578
  16977.969  0.23211    65976.43
  16989.643  0.232447   65497.242
  17001.332  0.23019       65758

File: SrCO3_rt_01.xdi
# XDI/1.0  SSRL EXAFS Data Collector 1.1 AD.RGN
# Column.1: energy eV
# Column.2: mutrans
# Column.3: i0
# Beamline.name: SSRL 4-3 (?)
# Element.edge: K
# Element.symbol: Sr
# Mono.d_spacing: 1.92009
# Mono.name: Si(220)
# Mono.notes: (?) unfocussed, detuned 50%, clockwise at E=16800eV
# Sample.formula: SrCO3
# Sample.name: strontianite
# Sample.prep: powder mixed with B2O3
# Sample.reference: none
# Sample.temperature: room temperature
# Scan.start_time: 1997-03-18 20:19:50
# ///
#    Note: mono d_spacing is nominal!
#--------------------------------------------
# energy     mutrans         i0
  15700.043 -0.00684553   68087.602
  15719.954 -0.00586758   67749.602
  15739.919 6.53139e-05   65914.602
  15759.935 -0.0101197   66334.602
  15780.002 -0.0106984   65703.602
  15799.958 -0.0115388   65028.602
  15819.965 -0.01070706   64535.602
  15840.023 -0.0101219   63961.602
  15859.968 -0.01270015   63194.602
  15879.964 -0.0129164   62437.602
  15900.011 -0.0100642   61957.602
  15919.941 -0.01080824   61443.602
  15939.925 -0.0122657   60747.602
  15959.959 -0.0124101   60116.602
  15980.045 -0.0111786   59485.602
  16000.012 -0.0133949   58709.602
  16020.030 -0.0127077   58152.602
  16039.929 -0.0133631   57363.602
  16060.049 -0.0108485   56630.602
  16080.051 -0.00294269   55886.602
  16082.448 7.7157e-05   55745.602
  16084.846 0.00320234   55767.602
  16087.415 0.00753854   55564.602
  16089.813 0.0142379   55478.602
  16092.214 0.0230537   55300.602
  16094.785 0.03986   55156.602
  16097.187 0.0715536   54990.602
  16099.588  0.152159   54958.602
  16102.162  0.325747   54793.602
  16104.565  0.555824   54667.602
  16106.970  0.851298   54580.602
  16109.547   1.12858   54388.602
  16111.952   1.23585   54411.602
  16114.359   1.13696   54157.602
  16116.767  0.969959   54060.602
  16119.345  0.831188   53925.602
  16121.754  0.767562   53783.602
  16124.163  0.743445   53757.602
  16126.746  0.734682   53607.602
  16129.157  0.738205   53543.602
  16131.568  0.756912   53339.602
  16133.980  0.781747   53061.602
  16136.568  0.809577   52853.602
  16138.981  0.837345   52962.602
  16141.396  0.867701   52975.602
  16143.812  0.894937   52825.602
  16146.400  0.910975   52754.602
  16148.817  0.91136   52528.602
  16151.062  0.9036   104741.19
  16153.481  0.890773   104673.09
  16155.727  0.873851   104367.91
  16158.146  0.851753   104124.63
  16160.740  0.829775   103776.24
  16163.334  0.813016   103618.77
  16166.102  0.797684    103223.2
  16168.871  0.786064   103004.54
  16171.642  0.780859   102826.79
  16174.586  0.783685   102833.94
  16177.705  0.792728   102771.99
  16180.825  0.804622   103435.95
  16183.946  0.812115   104109.82
  16187.242  0.816579   105219.59
  16190.539  0.817986   105910.27
  16194.011  0.818294   106337.85
  16197.485    0.820148   106569.34
  16201.134  0.82269   106851.73
  16204.785  0.822699   107116.03
  16208.612  0.818058   107473.23
  16212.439  0.809107   107832.34
  16216.271   0.7987531   108382.36
  16220.276  0.787749   108926.28
  16224.459  0.780131   109515.11
  16228.644  0.777073   110036.84
  16232.832  0.775976   110551.48
  16237.194  0.776463   111134.02
  16241.561  0.777707   111642.47
  16246.104  0.780028   112324.82
  16250.650  0.784357   113175.08
  16255.199  0.786321   113866.24
  16259.925  0.783606   114670.31
  16264.830  0.780292   115430.29
  16269.737  0.781954   116164.17
  16274.646  0.784302   116990.96
  16279.736  0.784386   117880.66
  16284.828   0.7807578   118607.25
  16290.099  0.775828   119566.76
  16295.373  0.771042   120347.16
  16300.827  0.767271   121302.48
  16306.286  0.763931    122088.7
  16311.748  0.760681   123137.82
  16317.388  0.760327   124003.85
  16323.212  0.761722   124939.79
  16328.861  0.764096   125983.63
  16334.867  0.764898   126881.38
  16340.703    0.763873   128034.03
  16346.719  0.760374   129110.59
  16352.918  0.75681   130084.05
  16359.119  0.753334   131255.42
  16365.326  0.750924    132216.7
  16371.717  0.749554   133437.87
  16378.111  0.748604   134440.97
  16384.689  0.746807   135497.95
  16391.271  0.743651   136627.86
  16398.039  0.740865   137711.66
  16404.813  0.738382   138903.36
  16411.590  0.736699   139892.98
  16418.553  0.737086    141034.5
  16425.521  0.736847   142001.92
  16432.676  0.735752   143234.25
  16439.834  0.733611   144337.48
  16447.180  0.731334   145271.62
  16454.354  0.728786   146353.67
  16461.891  0.726526   147450.62
  16469.438  0.724677   148701.48
  16476.988  0.722736   149830.25
  16484.549  0.720355   150841.92
  16492.295  0.718584   151987.48
  16500.229  0.717   153031.97
  16508.172  0.714857   154188.36
  16516.121  0.712739   155130.64
  16524.080  0.71063   156046.84
  16532.227  0.708669   157137.94
  16540.563  0.706652   158455.95
  16548.906  0.704205   159138.86
  16557.262  0.701901   160148.69
  16565.807  0.699598   161102.41
  16574.357  0.697687   162070.03
  16582.922   0.6958256   163287.56
  16591.674  0.694538   164472.02
  16600.438  0.690926   164709.36
  16609.393  0.688765   165506.61
  16618.357  0.686176   166692.77
  16627.332  0.684028   167681.83
  16636.502  0.681693    168400.8
  16645.682  0.679672   169349.66
  16655.053  0.677033   169875.44
  16664.254  0.674848   170659.12
  16673.832  0.671954   171163.72
  16683.420   0.6696438    172303.2
  16693.023  0.667166   173426.61
  16702.635  0.664985   173958.92
  16712.445  0.662662   174389.12
  16722.264  0.660125   175003.25
  16732.281  0.65726   175497.27
  16742.313  0.655202    176067.2
  16752.355  0.652405   176580.03
  16762.596  0.649818   177002.77
  16772.852  0.647326   177383.41
  16783.117  0.644874   177216.97
  16793.584  0.642423   178329.42
  16804.063  0.639569   178856.78
  16814.744  0.637234   179215.05
  16825.438   0.6348489   179516.22
  16836.146  0.632138    179974.3
  16847.059  0.629369   180012.28
  16857.982  0.626557   180078.17
  16868.922  0.623885   180515.97
  16880.064  0.621498   180219.66
  16891.223  0.618512   180825.27
  16902.396  0.616327   181018.78
  16913.773  0.613432   180954.19
  16925.166   0.6106598   180943.52
  16936.576  0.607503   181285.73
  16948.191  0.605006   181283.87
  16959.822  0.602384   181034.91
  16971.471  0.599677   180746.86
  16983.326  0.597291    180583.7
  16995.197  0.594288   180129.45
  17001.332   0.5930301    180407.8

File: SrO_10K_01.xdi
# XDI/1.0 EXAFS Data Collector 1.1 AD.RGN
# Column.1: energy eV
# Column.2: mutrans
# Column.3: murefer
# Column.4: i0
# Beamline.name: SSRL 4-3
# Detector.I0: N2 15cm
# Detector.I1: N2+Ar 30cm
# Detector.I2: Ar
# Element.edge: K
# Element.symbol: Sr
# Mono.d_spacing: 1.920128
# Mono.name: Si(220)
# Mono.notes: (?) unfocussed, detuned 50%, clockwise at E=17000eV
# Sample.formula: SrO
# Sample.name: strontium oxide
# Sample.prep: powder
# Sample.reference: SrCO3
# Sample.temperature: 10K
# Scan.start_time: 1995-06-16 02:32:00
# ///
#    Note: mono d_spacing is nominal!
#-------------
#   energy   mutrans        murefer      i0
  15699.933  0.990044  -1.1264   76951.703
  15719.844  0.987637   -1.128729   76084.703
  15740.136  0.984656   -1.131356   75282.703
  15760.152  0.983187  -1.13405   73386.703
  15779.891  0.978795  -1.13668   73900.703
  15800.011  0.975745  -1.13939   73147.703
  15819.854  0.972819  -1.14228   72510.703
  15840.076  0.969977  -1.14494   71716.703
  15860.021  0.967215  -1.14792   71042.703
  15880.018  0.9645  -1.15076   70406.703
  15900.063  0.961732  -1.15354   69785.703
  15920.164  0.958971  -1.15656   69149.703
  15939.978  0.956151  -1.15936   68486.703
  15959.844  0.952958  -1.16226   67749.703
  15980.097  0.950974  -1.16531   67198.703
  16000.064  0.94872  -1.16798   66569.703
  16020.082  0.945833  -1.17094   66014.703
  16040.152  0.944132  -1.17376   65308.699
  16059.933  0.942293  -1.17664   64721.699
  16080.104  0.941731  -1.17976   64041.699
  16099.984  0.94407  -1.18267   63407.699
  16119.917  0.96097  -1.18553   62744.699
  16122.670  0.966924  -1.18589   62761.699
  16125.079  0.974908  -1.18586   62779.699
  16127.490  0.988247  -1.18644   62671.699
  16129.901   1.01163  -1.18657   62677.699
  16132.657   1.07855  -1.18719   62481.699
  16135.069   1.22222  -1.18711   62592.699
  16137.483   1.42549  -1.1866   62573.699
  16139.897   1.58887  -1.18626   62516.699
  16142.657    1.790373  -1.18614   62344.699
  16145.073   1.9971  -1.18535   62265.699
  16147.490   2.04507  -1.18486   62248.699
  16149.907   1.94603   -1.185726   62154.699
  16152.670   1.85017  -1.1866   62115.699
  16155.090   1.79956  -1.187    124098.4
  16156.473   1.7773  -1.18715   123991.25
  16157.854   1.75754  -1.18753   123986.79
  16159.237   1.7411  -1.18787   124056.02
  16160.968    1.721417  -1.18807   123992.95
  16162.695   1.69892  -1.18849   124137.56
  16164.426   1.68112  -1.18882   124379.87
  16166.157    1.674949  -1.18927   124582.87
  16168.234   1.68223  -1.18946   124531.58
  16170.311   1.69485  -1.18968   124457.97
  16172.388    1.710872  -1.18971   124917.05
  16174.466   1.73211  -1.18989   126120.83
  16176.545   1.75985  -1.18995    126502.3
  16178.971   1.79417  -1.19015   126931.45
  16181.399   1.82275  -1.19054   127429.31
  16183.826   1.83695  -1.19052   128212.86
  16186.254   1.83049  -1.19088    128855.1
  16189.030   1.80317  -1.19136   129467.03
  16191.809   1.7811  -1.19181   130279.66
  16194.587    1.772886  -1.19217   131018.98
  16197.366   1.76709  -1.19259      131716
  16200.493   1.75507   -1.192999    132640.7
  16203.274   1.73953  -1.19357   133477.09
  16206.405   1.722  -1.19402   134535.19
  16209.884    1.712795  -1.19451   135361.97
  16213.016   1.71413  -1.19492   136265.45
  16216.499   1.71633  -1.19534   137316.62
  16219.981   1.71698  -1.19583   138317.48
  16223.468   1.72507  -1.19616   139308.05
  16226.954   1.73987  -1.19671    140453.3
  16230.792    1.751564  -1.19737   141367.23
  16234.281   1.74894   -1.198032   141891.87
  16238.122   1.74205  -1.19856    142491.2
  16242.313    1.747472  -1.19918   143508.22
  16246.159   1.75246  -1.19965   145443.94
  16250.354   1.7444  -1.20021   148234.34
  16254.553   1.72821  -1.20095   150338.44
  16258.753   1.71434  -1.20166   151996.23
  16262.957     1.70479   -1.202114   153175.72
  16267.162   1.70241    -1.20296   154023.91
  16271.719   1.70492   -1.203529   155019.78
  16276.280    1.707225  -1.204   156961.34
  16280.844    1.707999  -1.20468   159362.59
  16285.760   1.71056  -1.20534   161369.55
  16290.328   1.71337  -1.20618    162759.2
  16295.252   1.71081  -1.20688   164337.53
  16300.179    1.713029  -1.2079   166012.56
  16305.459   1.71963  -1.20846   167675.28
  16310.392   1.71296  -1.20931    169442.7
  16315.680   1.70137  -1.20996   171423.81
  16320.972   1.69774  -1.21083   173195.61
  16326.268   1.70587  -1.21141   175066.11
  16331.564   1.71158  -1.21208    176827.3
  16337.221   1.70901  -1.21291   178700.17
  16342.881   1.70157  -1.21372   180447.75
  16348.544    1.693063  -1.21455   182535.02
  16354.211   1.6864   -1.215238   184696.98
  16360.238    1.679183  -1.21601   186411.62
  16365.914    1.676707  -1.21674   188203.97
  16371.948   1.68508  -1.21743   190149.02
  16377.989   1.69227  -1.21824   192215.75
  16384.389   1.69656  -1.21906   194452.17
  16390.438    1.698083  -1.21979    196395.3
  16396.848   1.68951  -1.2207   198262.09
  16403.262   1.67743  -1.22155   200227.61
  16409.684   1.6752  -1.22257    202405.8
  16416.107   1.67411   -1.223539   204690.69
  16422.895   1.66836  -1.2244   206408.27
  16429.332   1.66415  -1.22522   208402.55
  16436.129   1.66746  -1.22622   210607.52
  16443.291   1.67082  -1.22705   212802.17
  16450.104   1.67324  -1.22783   214763.53
  16457.277   1.66993  -1.22805   216349.58
  16464.100   1.66756  -1.22882   218401.31
  16471.289   1.65897  -1.23028   220517.75
  16478.842   1.65203  -1.23075   222630.87
  16486.043   1.65124  -1.23196    224082.7
  16493.611   1.64794  -1.23288    226320.2
  16500.826   1.64968   -1.233747   228992.42
  16508.406   1.65702   -1.234765   230807.31
  16516.357   1.65755  -1.23584   232760.91
  16523.953   1.64948  -1.23686   234699.19
  16531.920   1.64431  -1.23786   236412.17
  16539.531   1.64192   -1.238904   238338.84
  16547.875   1.63437  -1.23991    240233.2
  16555.863   1.63187  -1.24111   241801.25
  16563.859   1.63208  -1.24205      244077
  16572.230   1.63227   -1.243162   245920.45
  16580.607   1.63562  -1.24416   247762.58
  16588.992   1.63547  -1.24525   249285.41
  16597.387   1.62977  -1.24696   251102.94
  16605.793   1.62471  -1.24815   252418.14
  16614.570    1.624652  -1.24944   254942.05
  16622.992   1.62331  -1.25049   256446.66
  16631.789    1.617827  -1.25166   257608.94
  16640.963   1.61179  -1.25284   259344.92
  16649.779   1.60957  -1.25376   260860.61
  16658.604   1.61041  -1.2548   262536.97
  16667.809    1.614041  -1.25594   263702.03
  16677.021   1.61214  -1.25726   265265.81
  16686.246   1.60566  -1.25859   266647.25
  16695.480   1.60056  -1.25948   268174.41
  16705.096   1.59843  -1.26072   269394.22
  16714.723   1.5972  -1.26191   269862.75
  16723.990   1.59205  -1.26301   271961.97
  16733.639   1.59163  -1.26432   272864.91
  16743.670   1.59279  -1.26533    274136.5
  16753.342   1.58967  -1.26662   275421.81
  16763.396   1.58661  -1.26793   276103.81
  16773.094   1.58537  -1.26923    277197.5
  16783.174    1.581003  -1.27032   278418.87
  16793.641   1.57688  -1.27165   278555.94
  16803.746   1.57407  -1.27288   279994.72
  16813.863   1.57237  -1.27398   280089.16
  16824.369   1.5695  -1.27539   281488.31
  16834.887   1.56892  -1.27642   281788.16
  16845.420   1.56515    -1.27752   282964.72
  16855.965   1.56197  -1.27858   283304.94
  16866.525   1.56228  -1.28016   283531.87
  16877.477   1.55965  -1.28163   283980.47
  16888.441   1.5544  -1.28293   283953.78
  16899.041   1.55022  -1.28421   284837.78
  16910.416   1.5457  -1.28548    285151.5
  16921.424   1.54523  -1.28666   285349.87
  16932.447     1.54445  -1.28775   285283.97
  16943.865   1.54078  -1.28934   285506.72
  16955.301   1.53849  -1.29072   285659.19
  16966.371   1.53395  -1.29106   285815.37
  16977.836   1.532  -1.29238   285588.22
  16989.699   1.52895  -1.29389   284928.75
  17001.197   1.52618  -1.29542      285264