Folder: XASDataLibrary/data/Sr (part 8)

File: SrSO4_rt_03.xdi
# XDI/1.0 EXAFS Data Collector 1.1 AD.RGN
# Column.1: energy eV
# Column.2: mutrans
# Column.3: mufluor
# Column.4: murefer
# Column.5: i0
# Beamline.name: SSRL 4-3
# Detector.I0: N2 15cm
# Detector.I1: N2+Ar 30cm
# Detector.If: Ar   (Lytle detector, using Rb Filter)
# Detector.I2: Ar
# Element.edge: K
# Element.symbol: Sr
# Mono.d_spacing: 1.920128
# Mono.name: Si(220)
# Mono.notes: (?) unfocussed, detuned 50%, clockwise at E=17000eV
# Sample.formula: SrSO4
# Sample.name: strontium sulfate
# Sample.prep: powder
# Sample.reference: SrCO3
# Sample.temperature: room temperature
# Scan.start_time: 1995-06-14 22:11:02
# ///
#    Note: mono d_spacing is nominal!
#-------------
#   energy   mutrans      mufluor    murefer      i0
  15699.933  -1.67778  0.764274  0.55741   133365.59
  15719.844  -1.6824  0.747355  0.555394   131281.59
  15740.136  -1.6871  0.730327  0.553198    129314.6
  15760.152  -1.69185  0.711031  0.551018    126119.6
  15779.891  -1.69622   0.6930096  0.548968    126605.6
  15800.011  -1.70068  0.674167  0.546737    124955.6
  15819.854  -1.70524  0.65706  0.544618    123612.6
  15840.076  -1.70983  0.639596  0.542384    122092.6
  15860.021  -1.71434  0.623084  0.540157    120747.6
  15880.018  -1.71876  0.607506  0.537968    119101.6
  15900.063    -1.72318  0.593294  0.535752    117639.6
  15920.164  -1.72765  0.580703  0.533596    116248.6
  15939.978  -1.73194  0.568555   0.5314218    114908.6
  15959.844  -1.73633   0.5571521  0.529206    113374.6
  15980.097  -1.74078   0.5487004  0.527036    111982.6
  16000.064  -1.74506  0.543813    0.524823    110778.6
  16020.082  -1.74942  0.543324  0.522665    109271.6
  16040.152  -1.75338  0.548149  0.520483    107802.6
  16059.933  -1.75734  0.560723  0.518387    106378.6
  16080.104  -1.76083  0.592421  0.516334    104901.6
  16099.984  -1.76291   0.6687866  0.514538    103539.6
  16119.917  -1.75905  0.951751  0.513937    102233.6
  16122.670  -1.75707   1.0353  0.514246    101964.6
  16125.079  -1.75432   1.14415   0.5146382    101806.6
  16127.490  -1.74982   1.3106  0.515755    101506.6
  16129.901   -1.742281   1.57515  0.518047    101428.6
  16132.657  -1.72439   2.18915  0.525904    101353.6
  16135.069  -1.68668   3.427  0.541762    101054.6
  16137.483  -1.60437   5.94713  0.564008    100945.6
  16139.897  -1.46498   9.79006  0.591623    100799.6
  16142.657  -1.30962   13.5728  0.62036    100611.6
  16145.073  -1.27823   13.8247  0.627878    100427.6
  16147.490  -1.33411   12.913  0.617286    100266.6
  16149.907  -1.39555    11.40636  0.600256   99963.602
  16152.670  -1.42732   10.63  0.58429   99793.602
  16155.090  -1.43517   10.4415  0.577388    199160.2
  16156.473  -1.43806    10.38075  0.575801   198996.08
  16157.854  -1.44076   10.3281  0.574841    198913.7
  16159.237  -1.44241   10.2969  0.574158   198632.06
  16160.968  -1.44172   10.3315  0.573692   199250.19
  16162.695  -1.4388   10.4246  0.574063   199307.05
  16164.426  -1.43401   10.5597  0.575344   199561.66
  16166.157  -1.42795     10.7389  0.57707   199461.02
  16168.234  -1.4218    10.90104   0.5789268   199317.12
  16170.311  -1.4212   10.9069  0.580856   199802.98
  16172.388  -1.42301   10.8844  0.583576   200651.59
  16174.466  -1.42144   10.9506  0.586577   202101.94
  16176.545  -1.4171   11.0831  0.589061   203046.05
  16178.971  -1.41003   11.2819    0.590751   203486.89
  16181.399  -1.40356   11.4594  0.590847   204504.48
  16183.826  -1.40193   11.5119  0.589785   205467.83
  16186.254  -1.40703   11.4  0.588135   206668.92
  16189.030  -1.41705   11.1633  0.585866   207688.75
  16191.809  -1.4244   11.0005  0.583061   208974.34
  16194.587  -1.42749   10.9415  0.580254   210075.67
  16197.366  -1.43002   10.8925  0.577953   211184.75
  16200.493  -1.43415    10.80894  0.575981   212373.59
  16203.274  -1.43672   10.7698  0.574731   213780.17
  16206.405  -1.43842   10.7487  0.574219   215639.48
  16209.884  -1.44103   10.7081   0.5749626   217228.56
  16213.016  -1.44342   10.6735  0.576035   218822.39
  16216.499  -1.44432   10.6796  0.576955   220298.95
  16219.981  -1.44322   10.7367    0.577206   222116.27
  16223.468   -1.440768    10.83219   0.5770732   223939.33
  16226.954  -1.43659   10.9799  0.576701   225327.14
  16230.792   -1.432403    11.14237  0.576441    226482.7
  16234.281  -1.43191    11.18097   0.5763945   227858.02
  16238.122  -1.43568   11.0645   0.5760935   229892.06
  16242.313  -1.44321   10.8545  0.575073   232620.87
  16246.159   -1.449492   10.701  0.573598   236067.42
  16250.354   -1.453999   10.6586  0.572115   239071.72
  16254.553  -1.45559   10.6866  0.570745   242193.77
  16258.753  -1.45576   10.7312  0.569788   244261.56
  16262.957  -1.45674   10.746  0.569233   246241.11
  16267.162  -1.4579   10.7318  0.568751   248456.39
  16271.719  -1.45916    10.70892  0.56829   251117.42
  16276.280  -1.46015   10.7039  0.567912   253790.22
  16280.844  -1.46074    10.73824  0.567822   257065.75
  16285.760  -1.46083   10.7898  0.567966   260188.03
  16290.328  -1.46112   10.814  0.567619   263252.06
  16295.252  -1.46214    10.82643   0.5667565   265932.84
  16300.179  -1.46354   10.8244  0.566036   268759.34
  16305.459  -1.46452   10.8394  0.565885   271625.62
  16310.392  -1.46633   10.8258  0.565593   274829.66
  16315.680   -1.469515   10.7809  0.565058   277532.41
  16320.972  -1.47177   10.7649  0.56422   280591.94
  16326.268  -1.47311   10.7702  0.56317   283619.19
  16331.564  -1.47365   10.7983  0.562137   287018.22
  16337.221  -1.47486   10.8073  0.561217   289378.97
  16342.881  -1.47682   10.8005  0.560277   292949.47
  16348.544  -1.47863   10.7963  0.559617   296030.72
  16354.211  -1.48038   10.7894  0.559226   299303.72
  16360.238  -1.48198   10.8001  0.558951   302710.47
  16365.914  -1.4834    10.80473  0.558664   305884.97
  16371.948  -1.48493   10.8128  0.558112   308803.22
  16377.989  -1.48661   10.8152  0.55732   312069.22
  16384.389  -1.48853   10.8154  0.556316   315521.97
  16390.438  -1.49019   10.8158  0.555385   319047.44
  16396.848  -1.49198   10.818  0.554505   322054.69
  16403.262  -1.49386   10.8145  0.553767   325331.66
  16409.684  -1.49605   10.8078  0.55308   328863.41
  16416.107  -1.49791   10.8041  0.5524   332463.87
  16422.895  -1.49948    10.81467  0.551537   335204.09
  16429.332  -1.5013   10.8168  0.550645   338962.09
  16436.129  -1.50345   10.8095  0.549753   342530.81
  16443.291  -1.50564   10.8057  0.548939   345400.28
  16450.104  -1.50745   10.8111  0.548329    348650.5
  16457.277  -1.50907   10.8234  0.547718   352177.47
  16464.100  -1.51072   10.8296  0.547098   356047.19
  16471.289  -1.51259   10.8366  0.546319   359269.66
  16478.842  -1.51447   10.8392  0.545431   362175.84
  16486.043  -1.51623   10.8496  0.544577   365301.81
  16493.611   -1.518248   10.8508  0.543675    368772.5
  16500.826  -1.52024   10.8522  0.542869   372060.97
  16508.406  -1.52239   10.8497  0.541995   375459.16
  16516.357  -1.52477   10.8467  0.541082   378281.12
  16523.953   -1.526885   10.8462  0.540319   381217.81
  16531.920  -1.52884   10.8505  0.539464   384086.25
  16539.531  -1.53072   10.8613  0.53874   387590.44
  16547.875  -1.53279   10.8665  0.537762   390504.41
  16555.863  -1.5348   10.8707   0.5369333   393101.09
  16563.859  -1.53691   10.8735  0.536081   396757.53
  16572.230  -1.53919   10.8779  0.53517   399223.69
  16580.607  -1.54153   10.8761  0.534275   402273.62
  16588.992  -1.54383    10.87516  0.533347   405269.31
  16597.387  -1.54609   10.8769  0.532431   408069.75
  16605.793  -1.54824   10.8768  0.531499   410188.91
  16614.570  -1.55055   10.8819  0.530616   413943.84
  16622.992  -1.55272   10.8824  0.529727    416086.5
  16631.789  -1.55498   10.8857  0.528766   418527.94
  16640.963  -1.55745   10.8884  0.527762   421458.09
  16649.779  -1.55984   10.8855  0.526804      423984
  16658.604  -1.56218   10.8898  0.525839   426255.66
  16667.809  -1.56462   10.8906  0.524893   428984.06
  16677.021  -1.56698   10.8934  0.523919   430345.22
  16686.246  -1.56929   10.8986   0.5229411   432598.12
  16695.480  -1.57175   10.897  0.521987   434377.78
  16705.096  -1.57423   10.8983   0.5209024   435743.19
  16714.723  -1.57698   10.8885   0.5198335   437414.34
  16723.990  -1.57924   10.9016  0.5189   440155.22
  16733.639    -1.58171   10.8989  0.517895   441646.87
  16743.670  -1.58424   10.9034  0.516834   443807.28
  16753.342  -1.58669   10.9037  0.51581   444964.41
  16763.396   -1.589262   10.9068  0.514754   446384.28
  16773.094  -1.59175   10.9065  0.513688   448435.94
  16783.174  -1.59435   10.9052  0.512605   449192.31
  16793.641  -1.59704   10.9085  0.511481   450932.44
  16803.746  -1.59967   10.9066  0.510557   452209.31
  16813.863  -1.60192   10.9366  0.509575   451111.94
  16824.369  -1.60473   10.9092  0.508328   455276.31
  16834.887   -1.607429   10.9103  0.507263   456022.44
  16845.420  -1.6101   10.9101  0.506218   455663.31
  16855.965  -1.61281   10.9111  0.505112   456575.94
  16866.525  -1.61544   10.9119  0.50403   457364.28
  16877.477  -1.61823   10.9154  0.502949   457459.41
  16888.441  -1.62083   10.9148  0.501816   457799.28
  16899.041    -1.62355   10.9089  0.500702   459306.87
  16910.416  -1.62633   10.907  0.499518   458867.22
  16921.424  -1.62899   10.916  0.498416   458697.34
  16932.447  -1.63174   10.9143  0.497284   459015.19
  16943.865  -1.63455   10.9152  0.496156   458665.78
  16955.301  -1.63729   10.9163  0.495013   458336.12
  16966.371  -1.63998   10.9198  0.493933   458409.22
  16977.836  -1.6428   10.9177   0.4928033   457849.06
  16989.699   -1.645586   10.9283  0.491668   457083.66
  17001.197  -1.64825   10.9294  0.490526      457006

File: SrTiO3_10K_01.xdi
# XDI/1.0 EXAFS Data Collector 1.1 AD.RGN
# Column.1: energy eV
# Column.2: mutrans
# Column.3: murefer
# Column.4: i0
# Beamline.name: SSRL 4-3
# Detector.I0: N2 15cm
# Detector.I1: N2+Ar 30cm
# Detector.I2: Ar
# Element.edge: K
# Element.symbol: Sr
# Mono.d_spacing: 1.920128
# Mono.name: Si(220)
# Mono.notes: (?) unfocussed, detuned 50%, clockwise at E=17000eV
# Sample.formula: SrTiO3
# Sample.name: strontium titanate
# Sample.prep: powder
# Sample.reference: SrCO3
# Sample.temperature: 10K
# Scan.start_time: 1995-06-16 03:59:08
# ///
#    Note: mono d_spacing is nominal!
#-------------
#   energy   mutrans      murefer      i0
  15699.933   1.90302  -1.12276   71555.703
  15719.844   1.89831  -1.12553   70818.703
  15740.136     1.89299  -1.12742   70064.703
  15760.152   1.88773  -1.13032   68296.703
  15779.891   1.88291  -1.13234   68671.703
  15800.011    1.877761  -1.13481   67900.703
  15819.854   1.87275  -1.1379   67229.703
  15840.076   1.86794  -1.14012   66576.703
  15860.021   1.86292  -1.14269   65824.703
  15880.018   1.8574   -1.145418   65128.699
  15900.063   1.85281    -1.14824   64441.699
  15920.164   1.84847   -1.150879   63800.699
  15939.978   1.84353  -1.15366   63094.699
  15959.844   1.83861  -1.15643   62300.699
  15980.097   1.83429  -1.15957   61631.699
  16000.064   1.82951  -1.16228   61013.699
  16020.082   1.82449  -1.16489   60267.699
  16040.152   1.82012  -1.1678   59634.699
  16059.933   1.81616  -1.1706   58925.699
  16080.104   1.81229  -1.17368   58140.699
  16099.984   1.80904  -1.17631   57530.699
  16119.917   1.8128   -1.179443   56803.699
  16122.670   1.81508  -1.1796   56724.699
  16125.079   1.81804  -1.17976   56652.699
  16127.490   1.82384   -1.180121   56523.699
  16129.901   1.83484  -1.18036   56459.699
  16132.657    1.866797  -1.18075   56320.699
  16135.069   1.92529  -1.18067   56325.699
  16137.483    2.061786  -1.18034   56247.699
  16139.897   2.23872  -1.17961   56017.699
  16142.657   2.46648  -1.17911   55949.699
  16145.073   2.46333   -1.179043   55867.699
  16147.490   2.27109  -1.18008   55835.699
  16149.907   2.14535  -1.18116   55749.699
  16152.670    2.113301  -1.18224   55480.699
  16155.090   2.1435  -1.18228    110858.4
  16156.473   2.16037  -1.18234   110817.25
  16157.854   2.16367  -1.18249   110771.79
  16159.237   2.15701  -1.18283   110697.02
  16160.968   2.14934  -1.1831   110889.95
  16162.695   2.14606  -1.18314   110919.56
  16164.426   2.14695  -1.18311   111058.87
  16166.157   2.15908  -1.18359   111170.87
  16168.234   2.18859  -1.18373   111138.58
  16170.311   2.21014  -1.18391   111060.97
  16172.388   2.23405  -1.18399   111402.05
  16174.466   2.26574  -1.18436   112401.83
  16176.545   2.2665  -1.1844    112779.3
  16178.971   2.22492  -1.1852   113201.45
  16181.399   2.17987   -1.185798   113661.31
  16183.826   2.16846  -1.18627   114055.86
  16186.254   2.18712  -1.18631    114737.1
  16189.030   2.22346  -1.18656   115307.03
  16191.809   2.22565  -1.18696   116039.66
  16194.587   2.18988  -1.18775   116746.98
  16197.366   2.15422  -1.18826   117315.99
  16200.493    2.138153  -1.18859    118102.7
  16203.274   2.13453  -1.18916    119019.1
  16206.405   2.12728  -1.18934   119750.19
  16209.884   2.13262  -1.18976   120647.98
  16213.016   2.1587  -1.19016   121751.45
  16216.499   2.18745  -1.19027   122502.62
  16219.981   2.19919  -1.19111   123460.48
  16223.468   2.19753  -1.19152   124457.05
  16226.954    2.201284  -1.19186    125469.3
  16230.792   2.2003  -1.19238   126302.23
  16234.281   2.17424  -1.19302   126982.87
  16238.122    2.153212  -1.19363    127196.2
  16242.313   2.14581  -1.19434   128278.22
  16246.159   2.14053  -1.19494   129890.94
  16250.354   2.13034  -1.19533   132495.34
  16254.553   2.12215  -1.19582   134574.44
  16258.753   2.12943  -1.19601   135729.23
  16262.957   2.13537  -1.19657   136699.72
  16267.162   2.14423  -1.19712   137743.91
  16271.719   2.16124   -1.196988   138705.78
  16276.280   2.17021  -1.19776   140362.34
  16280.844    2.170949  -1.19814   142360.59
  16285.760   2.15506  -1.19893   143895.55
  16290.328   2.13533  -1.19972    145598.2
  16295.252   2.1214   -1.200526   147108.53
  16300.179   2.12233  -1.2014   148749.56
  16305.459   2.12496   -1.201894   150314.28
  16310.392   2.13239  -1.20244    151820.7
  16315.680   2.1351  -1.20311   153546.81
  16320.972   2.12192  -1.20409   155261.61
  16326.268   2.11692  -1.20522   156847.11
  16331.564   2.1264  -1.20585    158699.3
  16337.221   2.13042  -1.20686   160395.17
  16342.881    2.133312  -1.20744   162018.75
  16348.544   2.13627  -1.20807   163837.02
  16354.211   2.12737  -1.20925   165345.98
  16360.238   2.11066   -1.210084   167208.62
  16365.914   2.09976  -1.21082   169211.97
  16371.948   2.1056  -1.21177   170951.02
  16377.989   2.11151  -1.21237   172648.75
  16384.389   2.11008  -1.21327   174511.17
  16390.438   2.11437  -1.21381    176324.3
  16396.848   2.11457  -1.21456   178408.09
  16403.262   2.10528  -1.21559   180427.61
  16409.684    2.098203  -1.21629    182249.8
  16416.107   2.09638  -1.21725   184143.69
  16422.895   2.09952  -1.21817   185809.27
  16429.332   2.09398  -1.2193   187753.55
  16436.129   2.08302  -1.22016   189574.52
  16443.291   2.08205  -1.2212   191407.17
  16450.104   2.08365  -1.22191   193306.53
  16457.277    2.096475  -1.22285   195273.58
  16464.100   2.10394   -1.223228   197357.31
  16471.289   2.08965   -1.224533   199087.75
  16478.842   2.07327  -1.22563   200944.87
  16486.043   2.07048  -1.22694    202874.7
  16493.611   2.07023  -1.2278    204551.2
  16500.826    2.069233  -1.2282   206450.42
  16508.406   2.07213  -1.22928   208402.31
  16516.357   2.06805  -1.23026   210298.91
  16523.953   2.06422  -1.23119   212165.19
  16531.920   2.06318  -1.23233   213737.17
  16539.531   2.06571  -1.23328   215440.84
  16547.875   2.06339  -1.23436    217164.2
  16555.863   2.05815  -1.23552   218597.25
  16563.859   2.05432  -1.23652      220801
  16572.230   2.04982   -1.238024   222601.45
  16580.607   2.04077  -1.23793   224069.58
  16588.992   2.03959  -1.23877   225719.41
  16597.387   2.04245  -1.23973   227364.94
  16605.793   2.04087  -1.24077   228812.14
  16614.570   2.03821  -1.24184   230855.05
  16622.992   2.03479   -1.242588   232285.66
  16631.789   2.02914  -1.24379   233880.94
  16640.963   2.0217  -1.24528   235533.92
  16649.779   2.02225  -1.24657   237079.61
  16658.604    2.025129  -1.24747   238983.98
  16667.809   2.01855  -1.24832   240516.05
  16677.021   2.01058  -1.2493    241777.8
  16686.246   2.0059  -1.25084   243052.25
  16695.480   2.00332  -1.25234   244259.39
  16705.096   2.00605  -1.25351   245372.23
  16714.723   2.00103  -1.25464   246085.77
  16723.990   1.99637  -1.25601   248148.98
  16733.639   1.99211  -1.25732   249132.91
  16743.670   1.9901  -1.25882   250482.52
  16753.342   1.98831  -1.25996   251471.81
  16763.396   1.9865  -1.26146    252200.8
  16773.094   1.98142  -1.2624   253341.48
  16783.174   1.97666  -1.26368   254252.87
  16793.641   1.97228  -1.26479   254713.94
  16803.746   1.96709  -1.2659    255506.7
  16813.863   1.96613  -1.26718   256035.17
  16824.369    1.964493  -1.2681   257065.33
  16834.887   1.95863  -1.26946   257526.17
  16845.420   1.95725   -1.270861    258383.7
  16855.965   1.95445  -1.2723   258886.94
  16866.525   1.94781  -1.27373   259347.86
  16877.477   1.9445  -1.27556   259327.48
  16888.441   1.94074  -1.27645   259703.78
  16899.041   1.93831  -1.27742    260674.8
  16910.416   1.93611  -1.27907   260864.48
  16921.424   1.93099  -1.27996   261171.87
  16932.447   1.92636  -1.28114   262098.95
  16943.865   1.9223  -1.28261   261758.73
  16955.301   1.9202  -1.2843    261961.2
  16966.371   1.91692  -1.28565   262000.36
  16977.836   1.91061  -1.28657   262512.22
  16989.699   1.90459  -1.28792   262463.75
  17001.197   1.90213  -1.28909      261969

File: SrTiO3_10K_02.xdi
# XDI/1.0 EXAFS Data Collector 1.1 AD.RGN
# Column.1: energy eV
# Column.2: mutrans
# Column.3: murefer
# Column.4: i0
# Beamline.name: SSRL 4-3
# Detector.I0: N2 15cm
# Detector.I1: N2+Ar 30cm
# Detector.I2: Ar
# Element.edge: K
# Element.symbol: Sr
# Mono.d_spacing: 1.920128
# Mono.name: Si(220)
# Mono.notes: (?) unfocussed, detuned 50%, clockwise at E=17000eV
# Sample.formula: SrTiO3
# Sample.name: strontium titanate
# Sample.prep: powder
# Sample.reference: SrCO3
# Sample.temperature: 10K
# Scan.start_time: 1995-06-16 03:59:08
# ///
#    Note: mono d_spacing is nominal!
#-------------
#   energy   mutrans      murefer      i0
  15699.933    1.912247  -1.11676   68164.703
  15719.844     1.90731  -1.11968   67404.703
  15740.136    1.902005  -1.12244   66699.703
  15760.152   1.89592  -1.12543   65116.699
  15779.891   1.89104  -1.12813   65501.699
  15800.011   1.88604  -1.13105   64680.699
  15819.854   1.8813  -1.13358   64066.699
  15840.076   1.87617  -1.13647   63359.699
  15860.021   1.87092  -1.13934   62664.699
  15880.018   1.86593  -1.14355   61880.699
  15900.063   1.86274  -1.14578   61277.699
  15920.164   1.85818  -1.1487   60601.699
  15939.978   1.8533  -1.15163   59891.699
  15959.844   1.84835  -1.15485   59132.699
  15980.097    1.843376   -1.157909   58510.699
  16000.064   1.8385  -1.16084   57817.699
  16020.082   1.83334  -1.16367   57169.699
  16040.152    1.829279  -1.1667   56470.699
  16059.933   1.82478  -1.16951   55770.699
  16080.104   1.82079  -1.17239   55054.699
  16099.984   1.81798  -1.1754   54339.699
  16119.917   1.82175  -1.17811   53660.699
  16122.670   1.82383  -1.17811   53617.699
  16125.079   1.82741   -1.178325   53635.699
  16127.490   1.83336   -1.178628   53542.699
  16129.901   1.84474  -1.17919   53434.699
  16132.657   1.87666  -1.17961   53325.699
  16135.069   1.93515  -1.17928   53206.699
  16137.483   2.07156  -1.17895   53204.699
  16139.897   2.24891  -1.17875   53018.699
  16142.657   2.47483  -1.17724   52973.699
  16145.073   2.47269  -1.17709   52919.699
  16147.490   2.28136  -1.17823   52818.699
  16149.907   2.15558  -1.1797   52679.699
  16152.670   2.12271  -1.18071   52571.699
  16155.090   2.15288  -1.18102    105127.4
  16156.473   2.1695  -1.18083   105040.25
  16157.854   2.17322  -1.18106   104998.79
  16159.237   2.16694  -1.18121   105104.02
  16160.968   2.1593  -1.18148   105093.95
  16162.695   2.15624  -1.18172   105239.56
  16164.426   2.15732  -1.1819   105427.88
  16166.157   2.16935  -1.18254   105613.88
  16168.234   2.19892  -1.18243   105512.58
  16170.311   2.22067  -1.18232   105381.97
  16172.388   2.24443  -1.18259   105866.05
  16174.466   2.2763  -1.1827   106902.83
  16176.545   2.2771  -1.18308    107186.3
  16178.971   2.23533  -1.18349   107607.45
  16181.399   2.19  -1.18414   108099.31
  16183.826   2.17866  -1.18461   108731.86
  16186.254   2.19782  -1.18474    109298.1
  16189.030   2.2346  -1.18516   109862.03
  16191.809   2.23654  -1.18563   110569.66
  16194.587   2.2  -1.18599   111192.98
  16197.366   2.16568  -1.18681   111944.99
  16200.493   2.15063  -1.18721    112635.7
  16203.274   2.14667  -1.18779    113567.1
  16206.405   2.14004  -1.18822   114352.19
  16209.884   2.14564   -1.188561   115091.98
  16213.016   2.17192  -1.18883   116140.45
  16216.499   2.20061  -1.18883   116955.62
  16219.981   2.21279  -1.18926   117956.48
  16223.468   2.21101  -1.19002   118910.05
  16226.954   2.21459  -1.19028    119915.3
  16230.792   2.21453  -1.19086   120403.23
  16234.281   2.18907  -1.19151   120810.87
  16238.122   2.16818  -1.19204    121299.2
  16242.313   2.16056  -1.19274   122193.22
  16246.159   2.15524  -1.19317   124134.94
  16250.354   2.14473   -1.193743   126532.34
  16254.553   2.13727  -1.1945   128631.45
  16258.753    2.144798  -1.19519   129820.23
  16262.957   2.14997  -1.19561   130683.73
  16267.162   2.15899  -1.19601   131614.91
  16271.719   2.17705  -1.19649   132748.78
  16276.280   2.18558  -1.19689   134272.34
  16280.844   2.18615  -1.19725   136210.59
  16285.760   2.16973  -1.19823   138071.55
  16290.328   2.14966  -1.19912    139761.2
  16295.252   2.13544  -1.20005   141210.53
  16300.179   2.13709  -1.20075   142766.56
  16305.459   2.1401  -1.20137   144243.28
  16310.392   2.14825  -1.20187    145823.7
  16315.680   2.15052  -1.20291   147473.81
  16320.972   2.13706  -1.20369   149121.61
  16326.268   2.13176  -1.20428   150879.11
  16331.564   2.14174  -1.20516    152518.3
  16337.221   2.14421  -1.20525   154292.17
  16342.881   2.14584  -1.20573   155921.75
  16348.544   2.14882   -1.206403   157837.02
  16354.211   2.1383  -1.20735   159442.98
  16360.238   2.12113  -1.20774   161111.62
  16365.914   2.11158  -1.20868   163061.97
  16371.948   2.11674  -1.20982   164836.02
  16377.989   2.12255  -1.21056   166647.75
  16384.389   2.12132  -1.21161   168516.17
  16390.438   2.12695  -1.21285    170554.3
  16396.848   2.12748   -1.214194   172308.09
  16403.262    2.118293  -1.21492   174240.61
  16409.684   2.11143  -1.21586    175903.8
  16416.107   2.10959  -1.21691   177860.69
  16422.895   2.11232  -1.2177   179779.27
  16429.332   2.10611  -1.21865   181639.55
  16436.129   2.0948  -1.21988   183567.52
  16443.291   2.09386  -1.2209   185354.17
  16450.104   2.09572  -1.22176   187157.53
  16457.277   2.10809  -1.22268   189141.58
  16464.100   2.11605  -1.2236   191115.31
  16471.289   2.10185  -1.22474   192950.75
  16478.842   2.08571  -1.22569   194684.87
  16486.043   2.08163  -1.22607    196643.7
  16493.611   2.08021  -1.22613    198236.2
  16500.826   2.0796  -1.22703   200129.42
  16508.406   2.0841  -1.22846   201925.31
  16516.357   2.08052  -1.22954   203567.91
  16523.953   2.07722   -1.230762   205586.19
  16531.920   2.07629  -1.23191   207004.17
  16539.531   2.07875  -1.23272   209227.84
  16547.875   2.07585  -1.23389    210999.2
  16555.863   2.07046  -1.2348   212448.25
  16563.859   2.06619  -1.2358      214683
  16572.230   2.0605  -1.23679   216050.45
  16580.607   2.05327  -1.23768   217917.58
  16588.992   2.05235   -1.238924   219779.41
  16597.387    2.055428  -1.2402   221775.94
  16605.793   2.05392  -1.24111   222834.14
  16614.570   2.05079   -1.242608   225055.05
  16622.992   2.04798  -1.24336   226486.66
  16631.789   2.0421  -1.2448   227815.94
  16640.963   2.03447  -1.24599   229430.92
  16649.779   2.0349  -1.24718   231076.61
  16658.604   2.0392  -1.24788   232133.98
  16667.809   2.03335  -1.24938   233720.05
  16677.021   2.02552  -1.25079    234874.8
  16686.246    2.021255  -1.25185   236564.25
  16695.480   2.01837  -1.25289   237937.39
  16705.096   2.0197  -1.25361   239866.23
  16714.723   2.01673  -1.25555   239852.77
  16723.990     2.01181  -1.25648   241877.98
  16733.639   2.00697  -1.25815   242897.91
  16743.670     2.00494  -1.25982   244017.52
  16753.342   2.00258  -1.26063   245194.81
  16763.396   1.99962  -1.26109    246275.8
  16773.094   1.99434  -1.26189   247179.48
  16783.174   1.98913  -1.26285   248306.87
  16793.641   1.98468  -1.26417   248780.94
  16803.746   1.98126  -1.26589    249255.7
  16813.863   1.97974  -1.2667   250009.17
  16824.369   1.98042  -1.26889   251143.33
  16834.887   1.97459  -1.27054   251389.17
  16845.420   1.97246  -1.2718    252287.7
  16855.965   1.96913  -1.27337   252583.94
  16866.525   1.96166  -1.27443   253605.86
  16877.477    1.958748  -1.2756   253548.48
  16888.441   1.95497  -1.27693   253881.78
  16899.041   1.95241  -1.2783    254251.8
  16910.416   1.95005  -1.28017   254580.48
  16921.424   1.94492  -1.28174   254983.87
  16932.447   1.942  -1.28314   255444.95
  16943.865   1.93799  -1.2842   255258.73
  16955.301   1.93475  -1.28539    255582.2
  16966.371   1.9321  -1.28702   255547.36
  16977.836    1.925118  -1.28765   255386.22
  16989.699   1.92055  -1.2891   255132.77
  17001.197   1.91832  -1.29106      255037